"Time (s)","Acceleration x (m/s^2)","Acceleration y (m/s^2)","Acceleration z (m/s^2)","Absolute acceleration (m/s^2)"
1.237111200E-2,7.657032460E-2,9.756135941E0,-5.748756528E-1,9.773358354E0
1.465802900E-2,9.092725813E-2,9.751350403E0,-6.083751321E-1,9.770732969E0
1.692939100E-2,7.657032460E-2,9.775279045E0,-6.083751321E-1,9.794491499E0
1.921265500E-2,7.178468257E-2,9.775279045E0,-6.173482537E-1,9.795016708E0
2.149585800E-2,7.178468257E-2,9.756135941E0,-6.131607890E-1,9.775648709E0
2.378479800E-2,5.264209956E-2,9.770493507E0,-6.317051649E-1,9.791034980E0
2.606281400E-2,5.264209956E-2,9.780064583E0,-6.083751321E-1,9.799109895E0
2.834711600E-2,4.785645381E-2,9.784850121E0,-6.317051649E-1,9.805336993E0
3.063294300E-2,3.828516230E-2,9.775279045E0,-6.317051649E-1,9.795743850E0
3.292896400E-2,3.349951655E-2,9.770493507E0,-6.508477330E-1,9.792204469E0
3.521143400E-2,4.307080805E-2,9.770493507E0,-6.460621357E-1,9.791924977E0
3.749250100E-2,4.785645381E-2,9.765707016E0,-6.179464459E-1,9.785355465E0
3.976984500E-2,5.742774159E-2,9.780064583E0,-6.131607890E-1,9.799435052E0
4.205707700E-2,5.264209956E-2,9.795019150E0,-5.796613097E-1,9.812297314E0
4.434137800E-2,5.742774159E-2,9.780064583E0,-6.083751321E-1,9.799136773E0
4.662317800E-2,6.699903309E-2,9.784850121E0,-5.748756528E-1,9.801951988E0
4.890296300E-2,6.699903309E-2,9.775279045E0,-6.035895348E-1,9.794125260E0
5.119049900E-2,6.699903309E-2,9.780662537E0,-5.557330847E-1,9.796667178E0
5.347370300E-2,6.699903309E-2,9.775279045E0,-5.940182209E-1,9.793540061E0
5.575544100E-2,8.614161611E-2,9.765707016E0,-6.083751321E-1,9.785017844E0
5.803351700E-2,5.264209956E-2,9.765707016E0,-6.035895348E-1,9.784483892E0
6.031287400E-2,8.614161611E-2,9.765707016E0,-5.940182209E-1,9.784135708E0
6.258966900E-2,8.614161611E-2,9.765707016E0,-6.221339107E-1,9.785882919E0
6.488898500E-2,8.135596663E-2,9.760921478E0,-6.652047038E-1,9.783900255E0
6.717255500E-2,7.178468257E-2,9.736993790E0,-6.269195080E-1,9.757419186E0
6.945301100E-2,6.221338734E-2,9.765707016E0,-6.269195080E-1,9.786006954E0
7.173108800E-2,6.221338734E-2,9.756135941E0,-6.221339107E-1,9.776150040E0
7.402063800E-2,6.221338734E-2,9.780064583E0,-6.460621357E-1,9.801577936E0
7.630549000E-2,2.871387079E-2,9.775279045E0,-6.460621357E-1,9.796647446E0
7.858399300E-2,3.349951655E-2,9.765707016E0,-6.508477330E-1,9.787428595E0
8.087104100E-2,4.307080805E-2,9.770493507E0,-6.317051649E-1,9.790988198E0
8.315210800E-2,1.914258115E-2,9.794421196E0,-6.364908218E-1,9.815099264E0
8.543427400E-2,1.914258115E-2,9.789635658E0,-6.699903607E-1,9.812554196E0
8.771473000E-2,1.914258115E-2,9.780064583E0,-6.699903607E-1,9.803005497E0
8.999866600E-2,2.392822690E-2,9.780064583E0,-6.747759581E-1,9.803344246E0
9.228662900E-2,2.392822690E-2,9.770493507E0,-6.412764788E-1,9.791544896E0
9.457203000E-2,4.785645381E-2,9.794421196E0,-6.364908218E-1,9.815197266E0
9.685352400E-2,4.785645381E-2,9.770493507E0,-6.460621357E-1,9.791947197E0
9.911676900E-2,5.264209956E-2,9.784850121E0,-6.460621357E-1,9.806296924E0
1.014139490E-1,3.828516230E-2,9.770493507E0,-6.508477330E-1,9.792222011E0
1.037044150E-1,3.349951655E-2,9.780064583E0,-6.364908218E-1,9.800811498E0
1.059867640E-1,2.871387079E-2,9.784850121E0,-6.179464459E-1,9.804385456E0
1.082567230E-1,1.375873014E-2,9.751350403E0,-6.317051649E-1,9.771800008E0
1.105449300E-1,4.785645381E-2,9.751350403E0,-6.035895348E-1,9.770130257E0
1.128342980E-1,4.307080805E-2,9.756135941E0,-5.988038778E-1,9.774590000E0
1.151203700E-1,5.742774159E-2,9.780064583E0,-6.035895348E-1,9.798840825E0
1.174044280E-1,6.699903309E-2,9.756135941E0,-5.988038778E-1,9.774724725E0
1.196784140E-1,7.657032460E-2,9.751350403E0,-6.179464459E-1,9.771210544E0
1.219676600E-1,8.614161611E-2,9.760921478E0,-5.796613097E-1,9.778497621E0
1.242492760E-1,9.092725813E-2,9.756135941E0,-6.269195080E-1,9.776680639E0
1.265334560E-1,9.571290761E-2,9.770493507E0,-5.988038778E-1,9.789293663E0
1.288103110E-1,7.657032460E-2,9.746564865E0,-5.988038778E-1,9.765242228E0
1.310993740E-1,8.135596663E-2,9.775279045E0,-6.221339107E-1,9.795394316E0
1.333820890E-1,5.742774159E-2,9.780064583E0,-5.892325640E-1,9.797966942E0
1.356656580E-1,6.221338734E-2,9.765707016E0,-5.988038778E-1,9.784246017E0
1.379417810E-1,7.657032460E-2,9.765707016E0,-5.892325640E-1,9.783766736E0
1.402273040E-1,8.614161611E-2,9.751350403E0,-5.748756528E-1,9.768660966E0
1.425152670E-1,9.092725813E-2,9.780064583E0,-5.796613097E-1,9.797649629E0
1.447993850E-1,1.004985496E-1,9.789635658E0,-5.605186820E-1,9.806184144E0
1.470804530E-1,1.100698411E-1,9.770493507E0,-5.413761139E-1,9.786099675E0
1.493576130E-1,9.092725813E-2,9.770493507E0,-5.557330847E-1,9.786707843E0
1.516353850E-1,8.614161611E-2,9.770493507E0,-5.605186820E-1,9.786937465E0
1.539307950E-1,7.657032460E-2,9.771091461E0,-5.413761139E-1,9.786377238E0
1.562125330E-1,4.785645381E-2,9.780662537E0,-5.748756528E-1,9.797659512E0
1.584965900E-1,4.307080805E-2,9.761520386E0,-5.605186820E-1,9.777694847E0
1.607826010E-1,3.828516230E-2,9.760921478E0,-6.083751321E-1,9.779937329E0
1.630535370E-1,4.307080805E-2,9.770493507E0,-5.892325640E-1,9.788339670E0
1.653451010E-1,3.349951655E-2,9.775876999E0,-5.844469070E-1,9.793389173E0
1.676221400E-1,4.307080805E-2,9.785448074E0,-5.844469070E-1,9.802980531E0
1.699090050E-1,2.392822690E-2,9.780662537E0,-5.892325640E-1,9.798424732E0
1.721956870E-1,2.392822690E-2,9.790233612E0,-5.988038778E-1,9.808558142E0
1.744787680E-1,1.435693540E-2,9.799804688E0,-6.035895348E-1,9.818385731E0
1.767621550E-1,1.435693540E-2,9.785448074E0,-5.844469070E-1,9.802896425E0
1.790403530E-1,1.435693540E-2,9.785448074E0,-5.653043389E-1,9.801773775E0
1.813281340E-1,4.785645287E-3,9.785448074E0,-5.605186820E-1,9.801489586E0
1.836107870E-1,1.914258115E-2,9.760921478E0,-5.844469070E-1,9.778421791E0
1.858942950E-1,4.785645381E-2,9.770493507E0,-5.844469070E-1,9.788074980E0
1.881702960E-1,4.785645381E-2,9.775279045E0,-5.892325640E-1,9.793138703E0
1.904559410E-1,3.828516230E-2,9.784850121E0,-5.892325640E-1,9.802650287E0
1.927441490E-1,3.828516230E-2,9.775876999E0,-5.748756528E-1,9.792840184E0
1.950282070E-1,8.135596663E-2,9.756135941E0,-5.940182209E-1,9.774541674E0
1.973100060E-1,1.004985496E-1,9.780064583E0,-5.988038778E-1,9.798894289E0
1.995881440E-1,1.004985496E-1,9.751350403E0,-5.844469070E-1,9.769366040E0
2.018753750E-1,7.178468257E-2,9.765707016E0,-6.221339107E-1,9.785767071E0
2.041607140E-1,6.699903309E-2,9.799206734E0,-6.035895348E-1,9.818007018E0
2.064469690E-1,5.742774159E-2,9.765707016E0,-6.221339107E-1,9.785672285E0
2.087163170E-1,5.264209956E-2,9.760921478E0,-6.131607890E-1,9.780302932E0
2.110074550E-1,4.307080805E-2,9.770493507E0,-5.940182209E-1,9.788628919E0
2.132904750E-1,4.785645381E-2,9.765707016E0,-5.988038778E-1,9.784165261E0
2.155761190E-1,7.178468257E-2,9.770493507E0,-5.605186820E-1,9.786821630E0
2.178519370E-1,6.699903309E-2,9.751350403E0,-5.700899959E-1,9.768230451E0
2.201342860E-1,5.742774159E-2,9.775279045E0,-5.748756528E-1,9.792336819E0
2.224179770E-1,6.699903309E-2,9.770493507E0,-5.940182209E-1,9.788763451E0
2.246966630E-1,7.178468257E-2,9.765707016E0,-5.892325640E-1,9.783730453E0
2.269906090E-1,6.221338734E-2,9.760921478E0,-6.035895348E-1,9.779763746E0
2.292656340E-1,7.178468257E-2,9.756135941E0,-5.700899959E-1,9.773041703E0
2.315482260E-1,5.742774159E-2,9.785448074E0,-5.796613097E-1,9.802769976E0
2.338396690E-1,6.221338734E-2,9.775876999E0,-5.413761139E-1,9.791053554E0
2.361231160E-1,5.264209956E-2,9.761520386E0,-5.371887088E-1,9.776432025E0
2.384027190E-1,6.221338734E-2,9.771091461E0,-5.557330847E-1,9.787080163E0
2.406844570E-1,4.785645381E-2,9.780662537E0,-5.413761139E-1,9.795751017E0
2.429713220E-1,4.785645381E-2,9.766305923E0,-5.509474277E-1,9.781950966E0
2.452564780E-1,4.785645381E-2,9.751948357E0,-5.557330847E-1,9.767887502E0
2.475373620E-1,6.221338734E-2,9.766305923E0,-5.605186820E-1,9.782575483E0
2.498170250E-1,7.657032460E-2,9.771091461E0,-5.509474277E-1,9.786911383E0
2.521049280E-1,8.614161611E-2,9.780662537E0,-5.461617708E-1,9.796278513E0
2.543883140E-1,7.178468257E-2,9.780662537E0,-5.653043389E-1,9.797248680E0
2.566700530E-1,6.221338734E-2,9.770493507E0,-5.748756528E-1,9.787588871E0
2.589495940E-1,5.264209956E-2,9.775279045E0,-5.844469070E-1,9.792876482E0
2.612384730E-1,4.785645381E-2,9.780064583E0,-5.892325640E-1,9.797915518E0
2.635210050E-1,4.785645381E-2,9.765707016E0,-5.940182209E-1,9.783873538E0
2.658021330E-1,3.349951655E-2,9.775279045E0,-5.988038778E-1,9.793659618E0
2.680803920E-1,3.349951655E-2,9.756135941E0,-6.035895348E-1,9.774846855E0
2.703646940E-1,3.349951655E-2,9.760921478E0,-6.131607890E-1,9.780218631E0
2.726529630E-1,3.828516230E-2,9.770493507E0,-6.317051649E-1,9.790968315E0
2.749358600E-1,3.828516230E-2,9.794421196E0,-6.221339107E-1,9.814234709E0
2.772188810E-1,3.828516230E-2,9.799206734E0,-6.412764788E-1,9.820242048E0
2.794964690E-1,4.785645381E-2,9.775279045E0,-6.221339107E-1,9.795173365E0
2.817855310E-1,4.785645381E-2,9.760921478E0,-6.083751321E-1,9.779979481E0
2.840672080E-1,3.828516230E-2,9.760921478E0,-6.179464459E-1,9.780537392E0
2.863516930E-1,5.264209956E-2,9.775279045E0,-5.892325640E-1,9.793163259E0
2.886298920E-1,7.178468257E-2,9.770493507E0,-6.556333899E-1,9.792729526E0
2.909176110E-1,6.699903309E-2,9.775876999E0,-5.557330847E-1,9.791889462E0
2.932001430E-1,7.178468257E-2,9.784850121E0,-5.844469070E-1,9.802551867E0
2.954840170E-1,4.785645381E-2,9.794421196E0,-6.083751321E-1,9.813414141E0
2.977564780E-1,5.264209956E-2,9.775876999E0,-5.557330847E-1,9.791801752E0
3.000452970E-1,5.264209956E-2,9.775279045E0,-6.179464459E-1,9.794932844E0
3.023321010E-1,6.699903309E-2,9.761520386E0,-4.989035130E-1,9.774490975E0
3.046189050E-1,8.135596663E-2,9.756135941E0,-6.412764788E-1,9.777527438E0
3.068995450E-1,7.657032460E-2,9.761520386E0,-5.276173949E-1,9.776068912E0
3.091778040E-1,9.571290761E-2,9.766305923E0,-5.276173949E-1,9.781015922E0
3.114647300E-1,7.178468257E-2,9.770493507E0,-6.412764788E-1,9.791778793E0
3.137488480E-1,8.135596663E-2,9.775876999E0,-5.324030519E-1,9.790701859E0
3.160308920E-1,6.221338734E-2,9.775279045E0,-6.221339107E-1,9.795254030E0
3.183092120E-1,5.264209956E-2,9.760921478E0,-6.221339107E-1,9.780869588E0
3.205923550E-1,6.699903309E-2,9.775279045E0,-5.653043389E-1,9.791840393E0
3.228788530E-1,6.221338734E-2,9.751350403E0,-6.604190469E-1,9.773886561E0
3.251531460E-1,8.614161611E-2,9.770493507E0,-5.748756528E-1,9.787770215E0
3.274456870E-1,4.307080805E-2,9.780064583E0,-6.179464459E-1,9.799662043E0
3.297327970E-1,6.699903309E-2,9.765707016E0,-6.508477330E-1,9.787600583E0
3.320166100E-1,7.178468257E-2,9.771091461E0,-5.276173949E-1,9.785589481E0
3.342967610E-1,6.699903309E-2,9.770493507E0,-6.083751321E-1,9.789645170E0
3.365782560E-1,6.221338734E-2,9.784850121E0,-6.083751321E-1,9.803942201E0
3.388574920E-1,6.699903309E-2,9.785448074E0,-5.132604837E-1,9.799128492E0
3.411448450E-1,6.221338734E-2,9.780662537E0,-5.461617708E-1,9.796097327E0
3.434221280E-1,5.264209956E-2,9.771091461E0,-5.605186820E-1,9.787296906E0
3.457122280E-1,4.307080805E-2,9.785448074E0,-5.413761139E-1,9.800506987E0
3.479886560E-1,3.349951655E-2,9.785448074E0,-5.180460811E-1,9.799208538E0
3.502756440E-1,3.828516230E-2,9.775876999E0,-5.796613097E-1,9.793122285E0
3.525612270E-1,3.828516230E-2,9.775876999E0,-5.132604837E-1,9.789416386E0
3.548462600E-1,5.742774159E-2,9.771091461E0,-5.413761139E-1,9.786246185E0
3.571272060E-1,4.785645381E-2,9.765707016E0,-6.083751321E-1,9.784755698E0
3.594044880E-1,7.178468257E-2,9.785448074E0,-5.228317380E-1,9.799668366E0
3.616831750E-1,7.657032460E-2,9.760921478E0,-5.988038778E-1,9.779571422E0
3.639774260E-1,8.135596663E-2,9.784850121E0,-5.940182209E-1,9.803201942E0
3.662597740E-1,8.614161611E-2,9.771091461E0,-5.509474277E-1,9.786990947E0
3.685426720E-1,6.221338734E-2,9.775279045E0,-6.317051649E-1,9.795866594E0
3.708258140E-1,5.742774159E-2,9.761520386E0,-5.509474277E-1,9.777224619E0
3.731100550E-1,4.785645381E-2,9.775279045E0,-5.844469070E-1,9.792851926E0
3.753924650E-1,4.785645381E-2,9.780064583E0,-6.269195080E-1,9.800254158E0
3.776717610E-1,3.349951655E-2,9.771091461E0,-5.748756528E-1,9.788045391E0
3.799544760E-1,4.785645381E-2,9.789635658E0,-6.221339107E-1,9.809500862E0
3.822424400E-1,7.178468257E-2,9.765707016E0,-6.556333899E-1,9.787953908E0
3.845253990E-1,7.657032460E-2,9.751350403E0,-5.844469070E-1,9.769149189E0
3.868084200E-1,8.135596663E-2,9.756135941E0,-6.131607890E-1,9.775723678E0
3.890857630E-1,5.204389244E-2,9.736993790E0,-6.508477330E-1,9.758860558E0
3.913748870E-1,7.178468257E-2,9.756135941E0,-5.605186820E-1,9.772488052E0
3.936570520E-1,5.742774159E-2,9.784850121E0,-6.221339107E-1,9.804776409E0
3.959397060E-1,4.785645381E-2,9.775279045E0,-6.083751321E-1,9.794309110E0
3.982118610E-1,4.785645381E-2,9.785448074E0,-5.700899959E-1,9.802157255E0
4.005027550E-1,3.828516230E-2,9.789635658E0,-6.179464459E-1,9.809194151E0
4.027894370E-1,2.871387079E-2,9.789635658E0,-6.179464459E-1,9.809161464E0
4.050761190E-1,1.914258115E-2,9.775279045E0,-6.035895348E-1,9.793914803E0
4.073554780E-1,2.392822690E-2,9.784850121E0,-6.412764788E-1,9.805870689E0
4.096348960E-1,3.828516230E-2,9.784850121E0,-6.083751321E-1,9.803819559E0
4.119220060E-1,3.349951655E-2,9.790233612E0,-5.844469070E-1,9.807720152E0
4.142064290E-1,3.349951655E-2,9.765707016E0,-6.364908218E-1,9.786484369E0
4.164891440E-1,3.349951655E-2,9.780064583E0,-5.940182209E-1,9.798144881E0
4.187674650E-1,3.828516230E-2,9.789635658E0,-6.131607890E-1,9.808893833E0
4.210538410E-1,2.871387079E-2,9.784850121E0,-6.131607890E-1,9.804084992E0
4.233344810E-1,3.349951655E-2,9.780064583E0,-5.940182209E-1,9.798144881E0
4.256163420E-1,4.307080805E-2,9.780662537E0,-5.700899959E-1,9.797357672E0
4.278987510E-1,5.742774159E-2,9.770493507E0,-5.700899959E-1,9.787279700E0
4.301826870E-1,6.221338734E-2,9.775876999E0,-5.653043389E-1,9.792405762E0
4.324723590E-1,6.221338734E-2,9.785448074E0,-5.700899959E-1,9.802237863E0
4.347551960E-1,4.307080805E-2,9.756733894E0,-5.419743061E-1,9.771870216E0
4.370373010E-1,7.178468257E-2,9.760921478E0,-5.748756528E-1,9.778099159E0
4.393142780E-1,6.699903309E-2,9.751350403E0,-5.796613097E-1,9.768793722E0
4.416011440E-1,7.657032460E-2,9.746564865E0,-5.844469070E-1,9.764372375E0
4.438853850E-1,7.178468257E-2,9.790233612E0,-5.605186820E-1,9.806528867E0
4.461684040E-1,6.699903309E-2,9.775279045E0,-6.317051649E-1,9.795898157E0
4.484424520E-1,7.657032460E-2,9.760921478E0,-5.940182209E-1,9.779279563E0
4.507370080E-1,6.221338734E-2,9.760921478E0,-6.508477330E-1,9.782794150E0
4.530191130E-1,7.657032460E-2,9.760921478E0,-6.460621357E-1,9.782578771E0
4.553036590E-1,9.571290761E-2,9.765707016E0,-6.364908218E-1,9.786895067E0
4.575790490E-1,7.178468257E-2,9.760323524E0,-6.987041831E-1,9.785563646E0
4.598588340E-1,8.135596663E-2,9.751350403E0,-6.131607890E-1,9.770947734E0
4.621316000E-1,6.699903309E-2,9.756135941E0,-6.364908218E-1,9.777105805E0
4.644318320E-1,5.204389244E-2,9.745966911E0,-7.172485590E-1,9.772462591E0
4.667152190E-1,6.221338734E-2,9.775279045E0,-5.796613097E-1,9.792648168E0
4.690009850E-1,6.221338734E-2,9.770493507E0,-6.364908218E-1,9.791401046E0
4.712849200E-1,6.221338734E-2,9.780064583E0,-6.939185858E-1,9.804848635E0
4.735675740E-1,7.657032460E-2,9.789635658E0,-5.748756528E-1,9.806799241E0
4.758489470E-1,5.264209956E-2,9.775279045E0,-6.652047038E-1,9.798027807E0
4.781272060E-1,6.699903309E-2,9.770493507E0,-6.939185858E-1,9.795333341E0
4.804117520E-1,5.742774159E-2,9.780064583E0,-5.892325640E-1,9.797966942E0
4.827017910E-1,2.871387079E-2,9.784850121E0,-6.652047038E-1,9.807477436E0
4.849827350E-1,4.785645381E-2,9.775279045E0,-6.179464459E-1,9.794908293E0
4.872658170E-1,3.349951655E-2,9.765707016E0,-6.227321029E-1,9.785599165E0
4.895435260E-1,2.392822690E-2,9.760921478E0,-6.652047038E-1,9.783591261E0
4.918321010E-1,4.785645381E-2,9.784850121E0,-6.131607890E-1,9.804159743E0
4.941146930E-1,3.349951655E-2,9.789635658E0,-6.556333899E-1,9.811622887E0
4.963995450E-1,3.828516230E-2,9.775279045E0,-6.795616150E-1,9.798946380E0
4.986687710E-1,2.871387079E-2,9.794421196E0,-6.221339107E-1,9.814202039E0
5.009648520E-1,1.914258115E-2,9.784850121E0,-6.083751321E-1,9.803763493E0
5.032471390E-1,1.435693540E-2,9.794421196E0,-7.028916478E-1,9.819620632E0
5.055328450E-1,2.871387079E-2,9.771091461E0,-5.509474277E-1,9.786653968E0
5.078064050E-1,3.349951655E-2,9.770493507E0,-6.035895348E-1,9.789176979E0
5.100855190E-1,2.392822690E-2,9.780064583E0,-6.795616150E-1,9.803674811E0
5.123795250E-1,3.828516230E-2,9.799804688E0,-5.413761139E-1,9.814821739E0
5.146653520E-1,3.349951655E-2,9.770493507E0,-6.364908218E-1,9.791260703E0
5.169453210E-1,3.349951655E-2,9.770493507E0,-6.508477330E-1,9.792204469E0
5.192177820E-1,6.221338734E-2,9.765707016E0,-5.700899959E-1,9.782530686E0
5.215110560E-1,6.221338734E-2,9.751350403E0,-6.699903607E-1,9.774537957E0
5.237930990E-1,6.221338734E-2,9.760921478E0,-6.508477330E-1,9.782794150E0
5.260689170E-1,7.657032460E-2,9.756135941E0,-6.364908218E-1,9.777176079E0
5.283559040E-1,7.178468257E-2,9.746564865E0,-6.412764788E-1,9.767902294E0
5.306392910E-1,9.092725813E-2,9.760921478E0,-6.412764788E-1,9.782386794E0
5.329309160E-1,1.004985496E-1,9.746564865E0,-6.508477330E-1,9.768788533E0
5.352112510E-1,8.614161611E-2,9.741779327E0,-6.179464459E-1,9.761738710E0
5.374942100E-1,1.004985496E-1,9.741779327E0,-5.844469070E-1,9.759812632E0
5.397716150E-1,1.100698411E-1,9.736993790E0,-6.412764788E-1,9.758708877E0
5.420608000E-1,9.092725813E-2,9.741779327E0,-5.940182209E-1,9.760296608E0
5.443421720E-1,1.100698411E-1,9.746564865E0,-5.796613097E-1,9.764407267E0
5.466268400E-1,1.052841991E-1,9.746564865E0,-6.221339107E-1,9.766967904E0
5.489041220E-1,1.052841991E-1,9.732208252E0,-5.796613097E-1,9.750024075E0
5.511934290E-1,8.135596663E-2,9.722636223E0,-5.509474277E-1,9.738573663E0
5.534754730E-1,7.597211748E-2,9.722636223E0,-6.227321029E-1,9.742854928E0
5.557593470E-1,6.221338734E-2,9.751350403E0,-6.083751321E-1,9.770507944E0
5.580352260E-1,4.785645381E-2,9.780662537E0,-5.796613097E-1,9.797941474E0
5.603208700E-1,4.725824669E-2,9.746564865E0,-6.604190469E-1,9.769028269E0
5.626087120E-1,4.307080805E-2,9.760921478E0,-6.131607890E-1,9.780256099E0
5.648928910E-1,2.871387079E-2,9.780064583E0,-6.035895348E-1,9.798714612E0
5.671737150E-1,9.571290575E-3,9.794421196E0,-6.795616150E-1,9.817972406E0
5.694540490E-1,1.435693540E-2,9.784850121E0,-6.699903607E-1,9.807771668E0
5.717444550E-1,-4.785645287E-3,9.809376717E0,-6.317051649E-1,9.829697141E0
5.740240570E-1,-4.785645287E-3,9.780064583E0,-6.891329288E-1,9.804314884E0
5.763062830E-1,-4.785645287E-3,9.803992271E0,-7.363911867E-1,9.831610211E0
5.785850300E-1,9.571290575E-3,9.780064583E0,-6.179464459E-1,9.799572065E0
5.808739710E-1,4.187439568E-3,9.765707016E0,-7.220342159E-1,9.792363579E0
5.831558920E-1,1.854437590E-2,9.765707016E0,-7.220342159E-1,9.792380243E0
5.854343340E-1,4.307080805E-2,9.770493507E0,-6.227321029E-1,9.790413359E0
5.877144250E-1,4.307080805E-2,9.760921478E0,-6.795616150E-1,9.784643437E0
5.899975060E-1,5.264209956E-2,9.765707016E0,-6.795616150E-1,9.789464168E0
5.922789390E-1,6.221338734E-2,9.760921478E0,-6.035895348E-1,9.779763746E0
5.945731290E-1,7.657032460E-2,9.760921478E0,-6.652047038E-1,9.783861631E0
5.968555990E-1,6.699903309E-2,9.775279045E0,-6.131607890E-1,9.794719773E0
5.991355070E-1,6.699903309E-2,9.775279045E0,-6.083751321E-1,9.794421350E0
6.014179770E-1,6.699903309E-2,9.780064583E0,-7.028916478E-1,9.805519302E0
6.037083830E-1,6.699903309E-2,9.760921478E0,-6.083751321E-1,9.780091885E0
6.059859100E-1,7.178468257E-2,9.746564865E0,-6.269195080E-1,9.766970246E0
6.082583710E-1,6.640082598E-2,9.736394882E0,-7.172485590E-1,9.763003629E0
6.105480430E-1,1.004985496E-1,9.741779327E0,-5.653043389E-1,9.758685025E0
6.128362510E-1,8.614161611E-2,9.736993790E0,-6.652047038E-1,9.760069966E0
6.151242760E-1,9.571290761E-2,9.750752449E0,-6.795616150E-1,9.774872801E0
6.174071130E-1,9.571290761E-2,9.765707016E0,-5.892325640E-1,9.783935277E0
6.196817100E-1,9.092725813E-2,9.750752449E0,-7.028916478E-1,9.776476756E0
6.219687590E-1,1.004985496E-1,9.770493507E0,-6.317051649E-1,9.791409232E0
6.242492150E-1,1.052841991E-1,9.775279045E0,-5.988038778E-1,9.794168227E0
6.265233850E-1,8.075776696E-2,9.741181374E0,-7.268198729E-1,9.768592708E0
6.288145840E-1,8.135596663E-2,9.760921478E0,-6.179464459E-1,9.780800821E0
6.311012660E-1,9.092725813E-2,9.756135941E0,-6.652047038E-1,9.779210273E0
6.333892910E-1,6.699903309E-2,9.765707016E0,-7.028916478E-1,9.791199061E0
6.356684660E-1,8.135596663E-2,9.765707016E0,-6.131607890E-1,9.785275595E0
6.379453820E-1,6.161518395E-2,9.746564865E0,-6.891329288E-1,9.771091408E0
6.402284020E-1,6.221338734E-2,9.765707016E0,-7.028916478E-1,9.791167484E0
6.425173420E-1,3.768695518E-2,9.751350403E0,-6.747759581E-1,9.774741816E0
6.448008500E-1,4.785645381E-2,9.765109062E0,-7.268198729E-1,9.792237352E0
6.470838710E-1,2.871387079E-2,9.780064583E0,-7.076773047E-1,9.805676667E0
6.493585900E-1,2.871387079E-2,9.780064583E0,-7.076773047E-1,9.805676667E0
6.516400230E-1,4.785645381E-2,9.789635658E0,-7.172485590E-1,9.815992159E0
6.539332360E-1,2.392822690E-2,9.770493507E0,-7.034898400E-1,9.795816142E0
6.562164390E-1,1.914258115E-2,9.794421196E0,-7.268198729E-1,9.821370583E0
6.584966510E-1,1.435693540E-2,9.818349838E0,-7.124629617E-1,9.844176103E0
6.607806480E-1,9.571290575E-3,9.808777809E0,-7.124629617E-1,9.834623388E0
6.630530480E-1,9.571290575E-3,9.823135376E0,-7.220342159E-1,9.849640279E0
6.653487030E-1,4.785645287E-3,9.784850121E0,-7.034898400E-1,9.810107682E0
6.676245810E-1,-0.000000000E0,9.789635658E0,-7.459624410E-1,9.818015394E0
6.699134610E-1,1.435693540E-2,9.799206734E0,-7.459624410E-1,9.827569318E0
6.721984340E-1,2.871387079E-2,9.774680138E0,-7.411768436E-1,9.802782227E0
6.744827960E-1,4.247260094E-2,9.765109062E0,-7.411768436E-1,9.793288622E0
6.767635580E-1,2.392822690E-2,9.789635658E0,-7.411768436E-1,9.817682109E0
6.790425500E-1,3.349951655E-2,9.774680138E0,-7.459624410E-1,9.803160407E0
6.813296600E-1,3.290131316E-2,9.750752449E0,-7.363911867E-1,9.778574937E0
6.836138390E-1,6.161518395E-2,9.755537987E0,-7.507480979E-1,9.784576667E0
6.858958830E-1,6.221338734E-2,9.769894600E0,-7.268198729E-1,9.797090289E0
6.881745080E-1,6.161518395E-2,9.755537987E0,-7.220342159E-1,9.782415410E0
6.904586880E-1,5.742774159E-2,9.760921478E0,-6.652047038E-1,9.783730544E0
6.927466520E-1,6.221338734E-2,9.756135941E0,-6.795616150E-1,9.779972545E0
6.950265590E-1,5.264209956E-2,9.769894600E0,-7.172485590E-1,9.796328760E0
6.973011560E-1,6.699903309E-2,9.765109062E0,-7.172485590E-1,9.791643854E0
6.995901580E-1,6.161518395E-2,9.746564865E0,-6.747759581E-1,9.770089339E0
7.018791590E-1,7.178468257E-2,9.746564865E0,-6.699903607E-1,9.769829415E0
7.041647430E-1,8.554340899E-2,9.731011391E0,-8.691928387E-1,9.770127765E0
7.064466640E-1,1.100698411E-1,9.746564865E0,-6.412764788E-1,9.768258676E0
7.087178430E-1,1.100698411E-1,9.755537987E0,-6.795616150E-1,9.779797583E0
7.110112390E-1,9.032905847E-2,9.736394882E0,-7.411768436E-1,9.764982732E0
7.132926110E-1,1.052841991E-1,9.745966911E0,-6.747759581E-1,9.769865833E0
7.155786210E-1,8.554340899E-2,9.741181374E0,-8.123632669E-1,9.775370392E0
7.178535850E-1,9.571290761E-2,9.756135941E0,-6.083751321E-1,9.775554703E0
7.201376430E-1,5.204389244E-2,9.755537987E0,-7.932206988E-1,9.787871528E0
7.224221880E-1,5.264209956E-2,9.770493507E0,-6.747759581E-1,9.793908166E0
7.247125940E-1,6.221338734E-2,9.765707016E0,-6.221339107E-1,9.785701540E0
7.269827970E-1,5.742774159E-2,9.770493507E0,-7.076773047E-1,9.796256861E0
7.292696010E-1,5.264209956E-2,9.795019150E0,-5.605186820E-1,9.811185073E0
7.315460290E-1,4.725824669E-2,9.746564865E0,-6.843472719E-1,9.770675064E0
7.338456500E-1,5.264209956E-2,9.770493507E0,-6.269195080E-1,9.790727380E0
7.361244590E-1,6.221338734E-2,9.799804688E0,-5.796613097E-1,9.817130418E0
7.384059530E-1,7.597211748E-2,9.731609344E0,-7.698906660E-1,9.762311398E0
7.406861660E-1,8.614161611E-2,9.760921478E0,-5.988038778E-1,9.779651045E0
7.429753500E-1,8.614161611E-2,9.756135941E0,-6.508477330E-1,9.778200839E0
7.452595920E-1,9.092725813E-2,9.765109062E0,-7.076773047E-1,9.791140379E0
7.475412080E-1,9.092725813E-2,9.746564865E0,-5.844469070E-1,9.764495513E0
7.498181850E-1,5.682953820E-2,9.745966911E0,-7.220342159E-1,9.772841656E0
7.521070630E-1,3.828516230E-2,9.775279045E0,-6.460621357E-1,9.796680175E0
7.543899010E-1,1.914258115E-2,9.775279045E0,-6.269195080E-1,9.795380284E0
7.566734710E-1,-5.982056609E-4,9.760921478E0,-7.172485590E-1,9.787238321E0
7.589499590E-1,9.571290575E-3,9.790233612E0,-6.035895348E-1,9.808826949E0
7.612366420E-1,-1.435693540E-2,9.780064583E0,-6.747759581E-1,9.803325556E0
7.635233240E-1,-1.016949583E-2,9.779465675E0,-7.698906660E-1,9.809729046E0
7.658059780E-1,4.785645287E-3,9.775279045E0,-6.227321029E-1,9.795095639E0
7.680827720E-1,3.290131316E-2,9.750752449E0,-7.316055298E-1,9.778215710E0
7.703671960E-1,5.204389244E-2,9.750752449E0,-7.363911867E-1,9.778658081E0
7.726543670E-1,5.204389244E-2,9.736394882E0,-7.034898400E-1,9.761915377E0
7.749395830E-1,5.682953820E-2,9.722038269E0,-7.411768436E-1,9.750415418E0
7.772205900E-1,6.699903309E-2,9.765707016E0,-6.747759581E-1,9.789220857E0
7.795003750E-1,7.178468257E-2,9.756135941E0,-6.460621357E-1,9.777767527E0
7.817880950E-1,7.597211748E-2,9.745966911E0,-7.555337548E-1,9.775503775E0
7.840713590E-1,4.307080805E-2,9.751350403E0,-6.179464459E-1,9.771005454E0
7.863528530E-1,5.682953820E-2,9.745966911E0,-7.363911867E-1,9.773912861E0
7.886320880E-1,5.204389244E-2,9.755537987E0,-7.316055298E-1,9.783070920E0
7.909189540E-1,4.307080805E-2,9.770493507E0,-6.364908218E-1,9.791298128E0
7.932035000E-1,4.725824669E-2,9.760323524E0,-7.411768436E-1,9.788538796E0
7.954856040E-1,5.264209956E-2,9.765707016E0,-6.460621357E-1,9.787195768E0
7.977646570E-1,6.221338734E-2,9.775279045E0,-6.843472719E-1,9.799402130E0
8.000482260E-1,3.349951655E-2,9.789037704E0,-7.794619799E-1,9.820078532E0
8.023360680E-1,2.871387079E-2,9.799206734E0,-6.460621357E-1,9.820523071E0
8.046193320E-1,-1.016949583E-2,9.784850121E0,-7.220342159E-1,9.811459051E0
8.069028410E-1,-5.982056609E-4,9.789037704E0,-7.884350419E-1,9.820737719E0
8.091792690E-1,-1.016949583E-2,9.784850121E0,-7.028916478E-1,9.810068907E0
8.114683310E-1,-2.452643216E-2,9.736394882E0,-7.698906660E-1,9.766817214E0
8.137500700E-1,-5.383851007E-3,9.780064583E0,-7.316055298E-1,9.807392053E0
8.160348600E-1,-0.000000000E0,9.789635658E0,-6.939185858E-1,9.814198354E0
8.183118980E-1,8.973085321E-3,9.755537987E0,-8.171489239E-1,9.789705526E0
8.205960780E-1,9.571290575E-3,9.789635658E0,-6.699903607E-1,9.812540192E0
8.228830040E-1,8.973085321E-3,9.770493507E0,-6.987041831E-1,9.795448506E0
8.251672450E-1,1.854437590E-2,9.745966911E0,-7.507480979E-1,9.774857423E0
8.274462360E-1,4.725824669E-2,9.751350403E0,-6.556333899E-1,9.773480606E0
8.297327970E-1,-5.982056609E-4,9.731609344E0,-7.890332937E-1,9.763544148E0
8.320153900E-1,1.286142170E-1,9.787840843E0,-9.643075466E-1,9.836069288E0
8.343007280E-1,4.725824669E-2,9.688538551E0,-7.082754970E-1,9.714508057E0
8.365818560E-1,9.032905847E-2,9.726225853E0,-7.980063558E-1,9.759325941E0
8.388610930E-1,7.657032460E-2,9.756135941E0,-6.460621357E-1,9.777803833E0
8.411466150E-1,9.092725813E-2,9.780064583E0,-5.557330847E-1,9.796263077E0
8.434271320E-1,1.052841991E-1,9.775279045E0,-6.221339107E-1,9.795622276E0
8.457114350E-1,1.100698411E-1,9.751948357E0,-4.181457460E-1,9.761529490E0
8.479921350E-1,1.148554832E-1,9.736993790E0,-5.796613097E-1,9.754908871E0
8.502764970E-1,1.004985496E-1,9.751948357E0,-5.084748268E-1,9.765712640E0
8.525654380E-1,9.092725813E-2,9.742377281E0,-4.558327198E-1,9.753459198E0
8.548487020E-1,8.614161611E-2,9.751350403E0,-6.412764788E-1,9.772793387E0
8.571304410E-1,9.571290761E-2,9.761520386E0,-4.654040039E-1,9.773077411E0
8.594049160E-1,7.178468257E-2,9.751350403E0,-5.892325640E-1,9.769400326E0
8.616851890E-1,1.004985496E-1,9.756135941E0,-5.988038778E-1,9.775011741E0
8.639791350E-1,1.100698411E-1,9.756135941E0,-5.318048596E-1,9.771239444E0
8.662631310E-1,1.046859920E-1,9.731609344E0,-7.268198729E-1,9.759274907E0
8.685435260E-1,1.100698411E-1,9.775279045E0,-5.988038778E-1,9.794220840E0
8.708297200E-1,1.052841991E-1,9.765707016E0,-6.125625968E-1,9.785466326E0
8.731129850E-1,8.554340899E-2,9.741181374E0,-7.220342159E-1,9.768278540E0
8.753971030E-1,1.244267747E-1,9.760921478E0,-5.748756528E-1,9.778627314E0
8.776732260E-1,1.100698411E-1,9.760323524E0,-6.981059909E-1,9.785876693E0
8.799577720E-1,8.135596663E-2,9.774680138E0,-7.028916478E-1,9.800257510E0
8.822434780E-1,8.135596663E-2,9.789635658E0,-5.844469070E-1,9.807403494E0
8.845290000E-1,6.699903309E-2,9.774680138E0,-7.459624410E-1,9.803332119E0
8.868096390E-1,9.092725813E-2,9.784850121E0,-6.269195080E-1,9.805334656E0
8.890897910E-1,8.614161611E-2,9.760323524E0,-7.028916478E-1,9.785979376E0
8.913775720E-1,9.032905847E-2,9.741181374E0,-7.836494446E-1,9.773069136E0
8.936607750E-1,9.032905847E-2,9.731609344E0,-7.220342159E-1,9.758776213E0
8.959416590E-1,5.682953820E-2,9.740582466E0,-8.883354068E-1,9.781171513E0
8.982171720E-1,2.392822690E-2,9.775279045E0,-6.987041831E-1,9.800246961E0
9.005042200E-1,9.571290575E-3,9.775279045E0,-6.221339107E-1,9.795061134E0
9.027931000E-1,4.785645287E-3,9.784850121E0,-6.795616150E-1,9.808420809E0
9.050770960E-1,4.785645287E-3,9.784850121E0,-6.317051649E-1,9.805221374E0
9.073594450E-1,8.973085321E-3,9.765109062E0,-7.794619799E-1,9.796172543E0
9.096375820E-1,2.811566554E-2,9.750752449E0,-7.884350419E-1,9.782616911E0
9.119256680E-1,6.161518395E-2,9.755537987E0,-7.268198729E-1,9.782769800E0
9.142076500E-1,6.640082598E-2,9.760323524E0,-7.746763229E-1,9.791243423E0
9.164915860E-1,6.221338734E-2,9.770493507E0,-6.939185858E-1,9.795301776E0
9.187691130E-1,6.699903309E-2,9.769894600E0,-7.316055298E-1,9.797478044E0
9.210579310E-1,3.768695518E-2,9.765109062E0,-7.794619799E-1,9.796240926E0
9.233363130E-1,1.854437590E-2,9.760323524E0,-7.459624410E-1,9.788805809E0
9.256099330E-1,-5.383851007E-3,9.755537987E0,-7.980063558E-1,9.788123648E0
9.279012540E-1,-2.452643216E-2,9.789635658E0,-7.651050687E-1,9.819519012E0
9.301856780E-1,-4.366901144E-2,9.799206734E0,-7.698906660E-1,9.829501067E0
9.324761440E-1,-2.931207791E-2,9.784252167E0,-7.746763229E-1,9.814915846E0
9.347575770E-1,-2.392822690E-2,9.823135376E0,-7.651050687E-1,9.852915657E0
9.370384000E-1,-1.495514158E-2,9.793823242E0,-7.698906660E-1,9.824048503E0
9.393170250E-1,1.375873014E-2,9.779465675E0,-7.651050687E-1,9.809358999E0
9.416012050E-1,3.768695518E-2,9.765109062E0,-7.651050687E-1,9.795109038E0
9.438895960E-1,3.768695518E-2,9.765109062E0,-7.651050687E-1,9.795109038E0
9.461722500E-1,6.699903309E-2,9.769894600E0,-7.459624410E-1,9.798560574E0
9.484512410E-1,6.221338734E-2,9.774680138E0,-7.124629617E-1,9.800808424E0
9.507367030E-1,5.264209956E-2,9.779465675E0,-7.268198729E-1,9.806578772E0
9.530225310E-1,3.828516230E-2,9.780064583E0,-7.028916478E-1,9.805365147E0
9.553037200E-1,1.435693540E-2,9.784850121E0,-6.891329288E-1,9.809097930E0
9.575825890E-1,1.375873014E-2,9.765109062E0,-7.268198729E-1,9.792130076E0
9.598606040E-1,1.375873014E-2,9.765707016E0,-6.891329288E-1,9.790001380E0
9.621377640E-1,3.349951655E-2,9.760921478E0,-6.179464459E-1,9.780519829E0
9.644341520E-1,5.204389244E-2,9.779465675E0,-7.788637877E-1,9.810570129E0
9.667169280E-1,7.657032460E-2,9.780064583E0,-6.652047038E-1,9.802959939E0
9.690013510E-1,9.032905847E-2,9.736394882E0,-7.076773047E-1,9.762497212E0
9.712870570E-1,9.571290761E-2,9.750752449E0,-6.981059909E-1,9.776179533E0
9.735695270E-1,1.238285750E-1,9.736394882E0,-7.268198729E-1,9.764270887E0
9.758526700E-1,1.142572835E-1,9.736394882E0,-7.124629617E-1,9.763096000E0
9.781294030E-1,1.142572835E-1,9.754940033E0,-8.027920127E-1,9.788584412E0
9.804176110E-1,9.571290761E-2,9.756135941E0,-5.557330847E-1,9.772419798E0
9.827052090E-1,8.075776696E-2,9.745368004E0,-8.787640929E-1,9.785241217E0
9.849863970E-1,8.614161611E-2,9.747162819E0,-4.229314029E-1,9.756714322E0
9.872666100E-1,9.032905847E-2,9.754940033E0,-8.739784956E-1,9.794429682E0
9.895457240E-1,9.571290761E-2,9.790233612E0,-4.701896608E-1,9.801985179E0
9.918335660E-1,6.161518395E-2,9.784252167E0,-8.410771489E-1,9.820529398E0
9.941185380E-1,2.871387079E-2,9.799804688E0,-5.318048596E-1,9.814265780E0
9.964037560E-1,3.828516230E-2,9.793823242E0,-7.836494446E-1,9.825199535E0
9.986797570E-1,2.871387079E-2,9.795019150E0,-5.748756528E-1,9.811916563E0
1.000966928E0,2.333002165E-2,9.745966911E0,-7.124629617E-1,9.772001781E0
1.003246347E0,5.204389244E-2,9.760323524E0,-7.555337548E-1,9.789660624E0
1.005521066E0,5.742774159E-2,9.780064583E0,-6.035895348E-1,9.798840825E0
1.007808846E0,4.785645381E-2,9.793823242E0,-8.075776696E-1,9.827178925E0
1.010087472E0,6.699903309E-2,9.799804688E0,-5.461617708E-1,9.815240876E0
1.012386178E0,5.742774159E-2,9.774680138E0,-7.124629617E-1,9.800779214E0
1.014665780E0,4.785645381E-2,9.765707016E0,-6.460621357E-1,9.787171197E0
1.016950692E0,3.768695518E-2,9.774680138E0,-7.603194118E-1,9.804278541E0
1.019226815E0,3.349951655E-2,9.790233612E0,-5.413761139E-1,9.805247804E0
1.021514596E0,4.247260094E-2,9.779465675E0,-8.267202377E-1,9.814439320E0
1.023794442E0,4.307080805E-2,9.799804688E0,-4.654040039E-1,9.810944292E0
1.026068978E0,2.871387079E-2,9.808179855E0,-8.596215248E-1,9.845819708E0
1.028357735E0,4.785645287E-3,9.814162254E0,-5.605186820E-1,9.830156909E0
1.030642892E0,-5.383851007E-3,9.779465675E0,-8.787640929E-1,9.818869803E0
1.032932808E0,-1.435693540E-2,9.771091461E0,-5.653043389E-1,9.787441109E0
1.035215158E0,-5.383851007E-3,9.760323524E0,-8.123632669E-1,9.794073635E0
1.037496835E0,-1.016949583E-2,9.765109062E0,-7.842476368E-1,9.796555659E0
1.039774972E0,-5.982056609E-4,9.745966911E0,-7.363911867E-1,9.773747663E0
1.042059273E0,4.187439568E-3,9.741181374E0,-8.219345808E-1,9.775797080E0
1.044334481E0,3.768695518E-2,9.750752449E0,-7.124629617E-1,9.776819375E0
1.046628060E0,4.247260094E-2,9.741181374E0,-7.124629617E-1,9.767293481E0
1.048907540E0,6.699903309E-2,9.751350403E0,-6.556333899E-1,9.773595996E0
1.051197335E0,8.075776696E-2,9.741181374E0,-7.316055298E-1,9.768949945E0
1.053479196E0,6.699903309E-2,9.756733894E0,-4.564309120E-1,9.767634019E0
1.055761850E0,7.597211748E-2,9.741181374E0,-7.698906660E-1,9.771853353E0
1.058038949E0,7.657032460E-2,9.747162819E0,-4.420739710E-1,9.757483048E0
1.060319222E0,6.161518395E-2,9.745966911E0,-7.932206988E-1,9.778387727E0
1.062599434E0,6.699903309E-2,9.771091461E0,-4.325026870E-1,9.780888292E0
1.064894356E0,5.204389244E-2,9.736394882E0,-7.698906660E-1,9.766925079E0
1.067177377E0,5.204389244E-2,9.717850685E0,-6.275177598E-1,9.738229256E0
1.069457773E0,6.221338734E-2,9.751350403E0,-6.556333899E-1,9.773564361E0
1.071744760E0,7.657032460E-2,9.756135941E0,-6.412764788E-1,9.777488789E0
1.074026681E0,8.075776696E-2,9.736394882E0,-7.220342159E-1,9.763464576E0
1.076309640E0,8.554340899E-2,9.731609344E0,-7.316055298E-1,9.759445925E0
1.078586861E0,1.100698411E-1,9.736993790E0,-6.083751321E-1,9.756602059E0
1.080876046E0,8.554340899E-2,9.735796928E0,-8.506484628E-1,9.773262624E0
1.083159555E0,1.004985496E-1,9.722636223E0,-5.419743061E-1,9.738248879E0
1.085447152E0,9.990034252E-2,9.740582466E0,-9.026923180E-1,9.782830893E0
1.087714425E0,7.657032460E-2,9.770493507E0,-6.131607890E-1,9.790013920E0
1.090001229E0,7.118647546E-2,9.754940033E0,-8.506484628E-1,9.792217592E0
1.092278939E0,4.307080805E-2,9.789037704E0,-7.507480979E-1,9.817878436E0
1.094576974E0,5.204389244E-2,9.774680138E0,-7.746763229E-1,9.805468054E0
1.096855355E0,4.307080805E-2,9.784850121E0,-7.076773047E-1,9.810502237E0
1.099131967E0,5.742774159E-2,9.774680138E0,-7.507480979E-1,9.803636695E0
1.101420480E0,5.264209956E-2,9.793823242E0,-7.603194118E-1,9.823432725E0
1.103713937E0,3.349951655E-2,9.775279045E0,-5.940182209E-1,9.793368178E0
1.105990670E0,2.811566554E-2,9.793823242E0,-8.835497499E-1,9.833637392E0
1.108269235E0,3.828516230E-2,9.795019150E0,-5.509474277E-1,9.810576383E0
1.110549996E0,3.349951655E-2,9.784252167E0,-7.746763229E-1,9.814929245E0
1.112839975E0,2.392822690E-2,9.794421196E0,-6.939185858E-1,9.819001076E0
1.115122567E0,4.785645381E-2,9.769894600E0,-7.363911867E-1,9.797724364E0
1.117404977E0,2.392822690E-2,9.794421196E0,-6.460621357E-1,9.815735093E0
1.119683480E0,3.349951655E-2,9.784252167E0,-7.507480979E-1,9.813069621E0
1.121972543E0,2.392822690E-2,9.780064583E0,-7.124629617E-1,9.806010365E0
1.124254525E0,3.349951655E-2,9.765707016E0,-5.796613097E-1,9.782952672E0
1.126538888E0,4.187439568E-3,9.755537987E0,-8.458628058E-1,9.792140871E0
1.128816659E0,-0.000000000E0,9.751948357E0,-5.748756528E-1,9.768878071E0
1.131104684E0,8.973085321E-3,9.765707016E0,-7.124629617E-1,9.791665717E0
1.133387033E0,-1.974078640E-2,9.760921478E0,-6.699903607E-1,9.783908467E0
1.135670724E0,-1.016949583E-2,9.741181374E0,-7.363911867E-1,9.768981009E0
1.137946908E0,-1.974078640E-2,9.732806206E0,-5.748756528E-1,9.749789144E0
1.140232247E0,-5.383851007E-3,9.741779327E0,-7.172485590E-1,9.768149208E0
1.142518685E0,4.187439568E-3,9.745966911E0,-7.363911867E-1,9.773748541E0
1.144802133E0,4.785645287E-3,9.756733894E0,-5.036891699E-1,9.769727835E0
1.147086496E0,-5.982056609E-4,9.769894600E0,-7.794619799E-1,9.800938824E0
1.149361642E0,2.871387079E-2,9.756733894E0,-5.605186820E-1,9.772863550E0
1.151640633E0,2.811566554E-2,9.746564865E0,-6.843472719E-1,9.770601228E0
1.153935372E0,1.375873014E-2,9.746564865E0,-6.227321029E-1,9.766448241E0
1.156217904E0,4.307080805E-2,9.769894600E0,-7.268198729E-1,9.796987431E0
1.158500008E0,3.828516230E-2,9.760921478E0,-6.556333899E-1,9.782990800E0
1.160783272E0,5.204389244E-2,9.741181374E0,-7.124629617E-1,9.767339791E0
1.163066232E0,4.247260094E-2,9.745966911E0,-7.842476368E-1,9.777562033E0
1.165351205E0,5.204389244E-2,9.736394882E0,-6.939185858E-1,9.761230295E0
1.167628609E0,6.161518395E-2,9.765109062E0,-8.027920127E-1,9.798246090E0
1.169912606E0,6.699903309E-2,9.769894600E0,-7.172485590E-1,9.796416429E0
1.172201791E0,6.161518395E-2,9.755537987E0,-7.651050687E-1,9.785688714E0
1.174483956E0,5.682953820E-2,9.745966911E0,-7.268198729E-1,9.773196394E0
1.176766915E0,7.597211748E-2,9.745966911E0,-7.507480979E-1,9.775135063E0
1.179043771E0,5.204389244E-2,9.726823807E0,-7.794619799E-1,9.758143825E0
1.181333688E0,5.682953820E-2,9.750752449E0,-7.316055298E-1,9.778325499E0
1.183616525E0,3.290131316E-2,9.769894600E0,-8.027920127E-1,9.802877027E0
1.185899301E0,2.333002165E-2,9.769894600E0,-7.507480979E-1,9.798724789E0
1.188175362E0,3.290131316E-2,9.760323524E0,-7.411768436E-1,9.788480010E0
1.190460518E0,2.811566554E-2,9.774680138E0,-7.746763229E-1,9.805370247E0
1.192747933E0,3.828516230E-2,9.779465675E0,-7.459624410E-1,9.807949562E0
1.195032052E0,4.247260094E-2,9.755537987E0,-7.746763229E-1,9.786339905E0
1.197306954E0,4.247260094E-2,9.760323524E0,-7.603194118E-1,9.789984925E0
1.199581674E0,5.264209956E-2,9.793823242E0,-7.651050687E-1,9.823804286E0
1.201881417E0,5.264209956E-2,9.784252167E0,-7.746763229E-1,9.815013248E0
1.204165475E0,4.725824669E-2,9.769894600E0,-7.603194118E-1,9.799548941E0
1.206449533E0,5.264209956E-2,9.784252167E0,-7.651050687E-1,9.814262449E0
1.208721200E0,3.768695518E-2,9.769894600E0,-7.411768436E-1,9.798040820E0
1.211012643E0,2.871387079E-2,9.774680138E0,-7.316055298E-1,9.802063198E0
1.213296700E0,1.914258115E-2,9.789037704E0,-7.459624410E-1,9.817437832E0
1.215580025E0,4.785645287E-3,9.803992271E0,-7.459624410E-1,9.832331734E0
1.217857369E0,4.785645287E-3,9.799206734E0,-7.555337548E-1,9.828291142E0
1.220140572E0,-2.931207791E-2,9.765707016E0,-7.411768436E-1,9.793836625E0
1.222426400E0,-1.974078640E-2,9.751350403E0,-7.220342159E-1,9.778065135E0
1.224714669E0,-1.495514158E-2,9.765109062E0,-7.842476368E-1,9.796561795E0
1.226995126E0,-3.409772366E-2,9.789635658E0,-7.411768436E-1,9.817712162E0
1.229270578E0,-2.931207791E-2,9.789037704E0,-7.884350419E-1,9.820781445E0
1.231549813E0,-4.366901144E-2,9.750752449E0,-7.698906660E-1,9.781196856E0
1.233843637E0,-1.495514158E-2,9.750752449E0,-7.698906660E-1,9.781110807E0
1.236128487E0,-3.409772366E-2,9.726823807E0,-7.698906660E-1,9.757304733E0
1.238408761E0,-3.409772366E-2,9.741181374E0,-7.651050687E-1,9.771241629E0
1.240690621E0,-3.888336942E-2,9.736394882E0,-7.459624410E-1,9.765006768E0
1.242976754E0,-3.888336942E-2,9.746564865E0,-7.411768436E-1,9.774782949E0
1.245262704E0,-2.931207791E-2,9.741181374E0,-7.411768436E-1,9.769381601E0
1.247542550E0,-3.409772366E-2,9.750752449E0,-7.746763229E-1,9.781536658E0
1.249821847E0,-3.409772366E-2,9.760921478E0,-7.555337548E-1,9.790177834E0
1.252108528E0,-3.409772366E-2,9.784850121E0,-7.746763229E-1,9.815527390E0
1.254393563E0,-2.452643216E-2,9.755537987E0,-7.698906660E-1,9.785900806E0
1.256675912E0,-1.974078640E-2,9.760323524E0,-7.698906660E-1,9.790660684E0
1.258954415E0,-5.982056609E-4,9.755537987E0,-8.027920127E-1,9.788513513E0
1.261239816E0,2.333002165E-2,9.755537987E0,-8.267202377E-1,9.790532777E0
1.263520578E0,2.811566554E-2,9.765109062E0,-8.362914920E-1,9.800894293E0
1.265807199E0,2.333002165E-2,9.755537987E0,-8.458628058E-1,9.792167768E0
1.268085580E0,2.811566554E-2,9.759725571E0,-8.787640929E-1,9.799247932E0
1.270369881E0,2.811566554E-2,9.745368004E0,-8.602197170E-1,9.783300362E0
1.272658090E0,2.811566554E-2,9.754940033E0,-8.835497499E-1,9.794912235E0
1.274941964E0,2.333002165E-2,9.745966911E0,-8.410771489E-1,9.782219896E0
1.277224069E0,3.768695518E-2,9.750752449E0,-8.458628058E-1,9.787444892E0
1.279501596E0,3.768695518E-2,9.774680138E0,-8.506484628E-1,9.811696841E0
1.281790169E0,3.768695518E-2,9.760323524E0,-8.171489239E-1,9.794542765E0
1.284072396E0,4.247260094E-2,9.760323524E0,-7.980063558E-1,9.792983885E0
1.286356515E0,4.247260094E-2,9.755537987E0,-7.746763229E-1,9.786339905E0
1.288633859E0,4.247260094E-2,9.765109062E0,-7.555337548E-1,9.794385646E0
1.290922982E0,1.854437590E-2,9.755537987E0,-7.698906660E-1,9.785887642E0
1.293205941E0,2.333002165E-2,9.769894600E0,-7.842476368E-1,9.801348333E0
1.295489388E0,2.811566554E-2,9.760323524E0,-7.842476368E-1,9.791820574E0
1.297764779E0,3.768695518E-2,9.765109062E0,-7.884350419E-1,9.796958973E0
1.300042977E0,2.392822690E-2,9.779465675E0,-7.507480979E-1,9.808269173E0
1.302332162E0,1.854437590E-2,9.770493507E0,-7.316055298E-1,9.797863743E0
1.304622567E0,4.187439568E-3,9.780064583E0,-7.363911867E-1,9.807749628E0
1.306904977E0,2.333002165E-2,9.750752449E0,-7.220342159E-1,9.777476721E0
1.309184762E0,2.333002165E-2,9.765707016E0,-7.172485590E-1,9.792038772E0
1.311470773E0,2.871387079E-2,9.784850121E0,-7.172485590E-1,9.811144778E0
1.313754037E0,1.914258115E-2,9.775279045E0,-7.124629617E-1,9.801226980E0
1.316036202E0,2.333002165E-2,9.760921478E0,-6.987041831E-1,9.785924582E0
1.318315011E0,3.768695518E-2,9.736394882E0,-6.987041831E-1,9.761505680E0
1.320597299E0,1.375873014E-2,9.770493507E0,-7.076773047E-1,9.796098195E0
1.322883675E0,1.914258115E-2,9.770493507E0,-7.076773047E-1,9.796107236E0
1.325154732E0,1.854437590E-2,9.760921478E0,-7.076773047E-1,9.786559108E0
1.327441231E0,4.187439568E-3,9.745966911E0,-7.316055298E-1,9.773389137E0
1.329732492E0,8.973085321E-3,9.726823807E0,-7.316055298E-1,9.754303078E0
1.332021798E0,4.187439568E-3,9.741181374E0,-7.555337548E-1,9.770438237E0
1.334303903E0,8.973085321E-3,9.760323524E0,-7.459624410E-1,9.788792356E0
1.336584420E0,1.854437590E-2,9.741181374E0,-7.316055298E-1,9.768633738E0
1.338862374E0,1.854437590E-2,9.741181374E0,-7.316055298E-1,9.768633738E0
1.341148507E0,3.768695518E-2,9.760323524E0,-7.316055298E-1,9.787777187E0
1.343422066E0,3.768695518E-2,9.750752449E0,-7.220342159E-1,9.777521518E0
1.345716195E0,1.375873014E-2,9.760921478E0,-7.124629617E-1,9.786898430E0
1.347994759E0,2.811566554E-2,9.760323524E0,-7.555337548E-1,9.789562659E0
1.350281685E0,2.333002165E-2,9.765109062E0,-7.459624410E-1,9.793587660E0
1.352566415E0,-1.495514158E-2,9.756135941E0,-7.411768436E-1,9.784260588E0
1.354850838E0,4.187439568E-3,9.760323524E0,-7.698906660E-1,9.790641678E0
1.357132150E0,-5.383851007E-3,9.769894600E0,-7.890332937E-1,9.801706128E0
1.359409737E0,4.187439568E-3,9.760323524E0,-7.698906660E-1,9.790641678E0
1.361688668E0,-1.974078640E-2,9.760323524E0,-7.980063558E-1,9.792911679E0
1.363983041E0,-1.016949583E-2,9.769894600E0,-7.794619799E-1,9.800944082E0
1.366265329E0,-1.974078640E-2,9.769894600E0,-7.842476368E-1,9.801340446E0
1.368546456E0,-2.931207791E-2,9.760323524E0,-7.980063558E-1,9.792935650E0
1.370830636E0,-3.888336942E-2,9.755537987E0,-7.890332937E-1,9.787471934E0
1.373115487E0,-1.495514158E-2,9.745966911E0,-7.890332937E-1,9.777866241E0
1.375399789E0,-2.452643216E-2,9.736394882E0,-7.794619799E-1,9.767576354E0
1.377676400E0,-1.495514158E-2,9.750752449E0,-7.890332937E-1,9.782636174E0
1.379958322E0,4.187439568E-3,9.765109062E0,-7.890332937E-1,9.796935545E0
1.382247078E0,-5.383851007E-3,9.755537987E0,-7.746763229E-1,9.786249220E0
1.384531502E0,1.375873014E-2,9.750752449E0,-8.027920127E-1,9.783753760E0
1.386813607E0,1.375873014E-2,9.741181374E0,-7.938188910E-1,9.773482096E0
1.389091195E0,-5.383851007E-3,9.765109062E0,-8.027920127E-1,9.798053837E0
1.391380685E0,-5.982056609E-4,9.765109062E0,-8.027920127E-1,9.798052376E0
1.393661935E0,4.187439568E-3,9.755537987E0,-8.075776696E-1,9.788908041E0
1.395944162E0,-5.982056609E-4,9.760323524E0,-8.267202377E-1,9.795273453E0
1.398214974E0,-5.383851007E-3,9.769894600E0,-8.267202377E-1,9.804811871E0
1.400507943E0,2.333002165E-2,9.755537987E0,-8.267202377E-1,9.790532777E0
1.402795541E0,2.811566554E-2,9.755537987E0,-8.171489239E-1,9.789741787E0
1.405081368E0,3.768695518E-2,9.741181374E0,-8.123632669E-1,9.775068743E0
1.407360482E0,4.247260094E-2,9.750752449E0,-8.171489239E-1,9.785024763E0
1.409639962E0,4.247260094E-2,9.760323524E0,-8.219345808E-1,9.794962771E0
1.411926889E0,2.333002165E-2,9.750752449E0,-8.219345808E-1,9.785361213E0
1.414211068E0,1.854437590E-2,9.760323524E0,-8.315058947E-1,9.795696057E0
1.416492929E0,-5.982056609E-4,9.765109062E0,-8.267202377E-1,9.800041924E0
1.418772592E0,1.854437590E-2,9.765109062E0,-8.171489239E-1,9.799256668E0
1.421060372E0,1.854437590E-2,9.760323524E0,-8.315058947E-1,9.795696057E0
1.423342415E0,4.187439568E-3,9.755537987E0,-8.362914920E-1,9.791318727E0
1.425621774E0,8.973085321E-3,9.750752449E0,-8.602197170E-1,9.788627677E0
1.427903634E0,4.187439568E-3,9.745966911E0,-8.554341197E-1,9.783437847E0
1.430186959E0,-5.982056609E-4,9.740582466E0,-8.745766878E-1,9.779766435E0
1.432477120E0,1.854437590E-2,9.754940033E0,-8.739784956E-1,9.794030700E0
1.434759041E0,2.811566554E-2,9.735796928E0,-8.739784956E-1,9.774986994E0
1.437042489E0,1.375873014E-2,9.755537987E0,-8.602197170E-1,9.793400261E0
1.439318979E0,2.333002165E-2,9.750752449E0,-8.554341197E-1,9.788231972E0
1.441600961E0,8.973085321E-3,9.760323524E0,-8.027920127E-1,9.793287029E0
1.443890451E0,-5.982056609E-4,9.774680138E0,-7.884350419E-1,9.806426565E0
1.446174080E0,-1.495514158E-2,9.760323524E0,-7.842476368E-1,9.791791629E0
1.448456063E0,-1.974078640E-2,9.774680138E0,-7.794619799E-1,9.805729064E0
1.450749642E0,-1.974078640E-2,9.765109062E0,-7.932206988E-1,9.797292676E0
1.453023080E0,-4.845465720E-2,9.779465675E0,-7.890332937E-1,9.811364344E0
1.455307321E0,-2.452643216E-2,9.774680138E0,-7.932206988E-1,9.806843142E0
1.457582406E0,-2.452643216E-2,9.760323524E0,-7.980063558E-1,9.792922495E0
1.459866280E0,-1.016949583E-2,9.755537987E0,-7.890332937E-1,9.787399980E0
1.462148812E0,-1.495514158E-2,9.750752449E0,-7.932206988E-1,9.782974806E0
1.464447945E0,-5.383851007E-3,9.760323524E0,-7.980063558E-1,9.792893262E0
1.466716683E0,-1.016949583E-2,9.779465675E0,-8.027920127E-1,9.812366041E0
1.469003243E0,-1.974078640E-2,9.765109062E0,-8.219345808E-1,9.799659236E0
1.471285530E0,-5.383851007E-3,9.769894600E0,-8.267202377E-1,9.804811871E0
1.473573617E0,-1.974078640E-2,9.760323524E0,-8.554341197E-1,9.797758546E0
1.475855050E0,-3.409772366E-2,9.774680138E0,-8.787640929E-1,9.814161237E0
1.478132333E0,-3.409772366E-2,9.759725571E0,-8.979067206E-1,9.801002109E0
1.480417184E0,-4.366901144E-2,9.765109062E0,-8.931210637E-1,9.805963859E0
1.482709543E0,-3.888336942E-2,9.735796928E0,-9.170492887E-1,9.778968920E0
1.484987618E0,-4.366901144E-2,9.740582466E0,-9.170492887E-1,9.783753531E0
1.487270517E0,-2.452643216E-2,9.754940033E0,-8.979067206E-1,9.796208097E0
1.489546639E0,-2.931207791E-2,9.740582466E0,-9.074779749E-1,9.782807483E0
1.491837350E0,-1.495514158E-2,9.750752449E0,-8.745766878E-1,9.789907117E0
1.494121285E0,-3.409772366E-2,9.750752449E0,-8.697910309E-1,9.789528713E0
1.496408822E0,-3.409772366E-2,9.760323524E0,-8.506484628E-1,9.797381322E0
1.498683541E0,-2.452643216E-2,9.760323524E0,-8.315058947E-1,9.795709209E0
1.500957162E0,-4.845465720E-2,9.760323524E0,-8.123632669E-1,9.794192015E0
1.503247872E0,-4.845465720E-2,9.765109062E0,-8.123632669E-1,9.798961013E0
1.505534249E0,-3.888336942E-2,9.745966911E0,-7.980063558E-1,9.778660292E0
1.507814462E0,-4.366901144E-2,9.765109062E0,-7.938188910E-1,9.797418559E0
1.510098092E0,-1.974078640E-2,9.774680138E0,-8.075776696E-1,9.808004037E0
1.512385568E0,-3.888336942E-2,9.755537987E0,-8.027920127E-1,9.788590723E0
1.514669259E0,-2.452643216E-2,9.774680138E0,-8.123632669E-1,9.808410035E0
1.516948434E0,-3.888336942E-2,9.750752449E0,-8.075776696E-1,9.784215192E0
1.519222176E0,-3.888336942E-2,9.755537987E0,-8.267202377E-1,9.790582193E0
1.521514779E0,-4.845465720E-2,9.769894600E0,-8.171489239E-1,9.804127738E0
1.523799813E0,-1.495514158E-2,9.765109062E0,-8.554341197E-1,9.802517339E0
1.526080941E0,-2.452643216E-2,9.736394882E0,-8.554341197E-1,9.773932391E0
1.528361885E0,-5.383851007E-3,9.745966911E0,-8.410771489E-1,9.782193557E0
1.530645150E0,-5.383851007E-3,9.750752449E0,-8.171489239E-1,9.784934066E0
1.532934029E0,1.375873014E-2,9.760323524E0,-8.171489239E-1,9.794479923E0
1.535216318E0,-5.383851007E-3,9.741181374E0,-8.027920127E-1,9.774206799E0
1.537500070E0,4.187439568E-3,9.741181374E0,-7.932206988E-1,9.773424741E0
1.539776498E0,8.973085321E-3,9.741181374E0,-7.842476368E-1,9.772703793E0
1.542065866E0,8.973085321E-3,9.736394882E0,-8.075776696E-1,9.769833546E0
1.544347482E0,1.375873014E-2,9.736394882E0,-7.794619799E-1,9.767555251E0
1.546631967E0,4.187439568E-3,9.731609344E0,-7.980063558E-1,9.764274275E0
1.548909921E0,8.973085321E-3,9.750752449E0,-7.842476368E-1,9.782244027E0
1.551197824E0,-1.016949583E-2,9.765109062E0,-7.980063558E-1,9.797666690E0
1.553480111E0,-5.383851007E-3,9.726823807E0,-8.075776696E-1,9.760292621E0
1.555763986E0,-1.495514158E-2,9.750752449E0,-7.932206988E-1,9.782974806E0
1.558040170E0,-1.495514158E-2,9.765109062E0,-8.027920127E-1,9.798063771E0
1.560322701E0,-1.016949583E-2,9.750752449E0,-8.075776696E-1,9.784143214E0
1.562601144E0,-5.383851007E-3,9.755537987E0,-8.027920127E-1,9.788514975E0
1.564898018E0,4.187439568E-3,9.736394882E0,-7.794619799E-1,9.767546458E0
1.567179574E0,-5.383851007E-3,9.760323524E0,-7.890332937E-1,9.792166146E0
1.569461007E0,-5.383851007E-3,9.745966911E0,-7.890332937E-1,9.777856287E0
1.571745248E0,-1.974078640E-2,9.750752449E0,-8.027920127E-1,9.783764001E0
1.574029000E0,-2.452643216E-2,9.765109062E0,-7.746763229E-1,9.795819514E0
1.576311410E0,-3.409772366E-2,9.784252167E0,-7.884350419E-1,9.816026840E0
1.578590646E0,-3.888336942E-2,9.760323524E0,-8.219345808E-1,9.794947865E0
1.580877572E0,-2.931207791E-2,9.765109062E0,-8.315058947E-1,9.800490613E0
1.583162728E0,-2.452643216E-2,9.760323524E0,-8.267202377E-1,9.795304140E0
1.585446176E0,-1.495514158E-2,9.745966911E0,-8.554341197E-1,9.783448381E0
1.587715157E0,-1.974078640E-2,9.726823807E0,-8.602197170E-1,9.764807680E0
1.590002145E0,-1.495514158E-2,9.741181374E0,-8.697910309E-1,9.779947579E0
1.592281808E0,-5.982056609E-4,9.735796928E0,-8.835497499E-1,9.775806992E0
1.594579110E0,-1.495514158E-2,9.741181374E0,-8.697910309E-1,9.779947579E0
1.596860299E0,1.375873014E-2,9.745966911E0,-8.506484628E-1,9.783029344E0
1.599139474E0,2.811566554E-2,9.741181374E0,-8.315058947E-1,9.776646004E0
1.601423348E0,2.811566554E-2,9.731011391E0,-8.602197170E-1,9.768999495E0
1.603714242E0,5.204389244E-2,9.741181374E0,-8.027920127E-1,9.774343872E0
1.605992685E0,2.333002165E-2,9.735796928E0,-8.979067206E-1,9.777142865E0
1.608270089E0,4.307080805E-2,9.746564865E0,-5.940182209E-1,9.764744718E0
1.610554025E0,5.204389244E-2,9.754940033E0,-8.506484628E-1,9.792097141E0
1.612841622E0,6.221338734E-2,9.789635658E0,-7.172485590E-1,9.816072653E0
1.615125680E0,6.161518395E-2,9.750752449E0,-7.459624410E-1,9.779439131E0
1.617404366E0,4.247260094E-2,9.755537987E0,-7.842476368E-1,9.787102211E0
1.619686776E0,5.264209956E-2,9.746564865E0,-5.653043389E-1,9.763086953E0
1.621974862E0,2.333002165E-2,9.741181374E0,-7.268198729E-1,9.768286747E0
1.624259529E0,1.435693540E-2,9.760921478E0,-6.556333899E-1,9.782926422E0
1.626542550E0,-2.931207791E-2,9.770493507E0,-6.699903607E-1,9.793481999E0
1.628818612E0,-4.845465720E-2,9.765707016E0,-7.555337548E-1,9.795009578E0
1.631105783E0,-2.392822690E-2,9.770493507E0,-6.412764788E-1,9.791544896E0
1.633389779E0,-6.281159073E-2,9.760921478E0,-7.459624410E-1,9.789585965E0
1.635672250E0,-6.281159073E-2,9.760921478E0,-7.316055298E-1,9.788502442E0
1.637950631E0,-6.759724021E-2,9.760921478E0,-7.130611539E-1,9.787165764E0
1.640234689E0,-9.152546525E-2,9.736394882E0,-8.979067206E-1,9.778138815E0
1.642522836E0,-9.152546525E-2,9.775279045E0,-7.130611539E-1,9.801679118E0
1.644805977E0,-1.106680483E-1,9.755537987E0,-8.931210637E-1,9.796960450E0
1.647088449E0,-1.345962733E-1,9.779465675E0,-8.650053740E-1,9.818569109E0
1.649367318E0,-1.250249892E-1,9.736993790E0,-7.411768436E-1,9.765962442E0
1.651660165E0,-1.304088384E-1,9.731011391E0,-9.786644578E-1,9.780969956E0
1.653936898E0,-1.058823988E-1,9.760921478E0,-7.698906660E-1,9.791809374E0
1.656221627E0,-1.106680483E-1,9.769894600E0,-9.266205430E-1,9.814362615E0
1.658498544E0,-1.160518974E-1,9.745966911E0,-9.218349457E-1,9.790154174E0
1.660784737E0,-5.802594870E-2,9.760921478E0,-7.220342159E-1,9.787762182E0
1.663058419E0,-7.716853172E-2,9.779465675E0,-9.409775138E-1,9.824934736E0
1.665353340E0,-4.366901144E-2,9.793823242E0,-8.171489239E-1,9.827950603E0
1.667630013E0,-1.974078640E-2,9.765109062E0,-8.787640929E-1,9.804589284E0
1.669917916E0,-1.495514158E-2,9.745368004E0,-9.882357717E-1,9.795357631E0
1.672202035E0,4.725824669E-2,9.750752449E0,-7.268198729E-1,9.777917661E0
1.674487619E0,1.854437590E-2,9.750154495E0,-8.931210637E-1,9.790991871E0
1.676769418E0,3.290131316E-2,9.769894600E0,-7.932206988E-1,9.802097840E0
1.679047738E0,5.204389244E-2,9.779465675E0,-8.123632669E-1,9.813286480E0
1.681334908E0,4.247260094E-2,9.745368004E0,-9.314061999E-1,9.789868179E0
1.683619699E0,9.032905847E-2,9.731609344E0,-6.747759581E-1,9.755393501E0
1.685900705E0,6.640082598E-2,9.721440315E0,-8.979067206E-1,9.763044984E0
1.688178841E0,6.640082598E-2,9.745966911E0,-8.171489239E-1,9.780389178E0
1.690461922E0,7.597211748E-2,9.760323524E0,-7.698906660E-1,9.790935538E0
1.692751351E0,8.075776696E-2,9.745368004E0,-9.026923180E-1,9.787419107E0
1.695035469E0,9.092725813E-2,9.746564865E0,-6.460621357E-1,9.768377077E0
1.697314766E0,3.290131316E-2,9.721440315E0,-8.410771489E-1,9.757812002E0
1.699584848E0,-1.304088384E-1,9.698110580E0,-8.177471161E-1,9.733399490E0
1.701883493E0,1.722832322E-1,9.798010826E0,-9.212366939E-1,9.842732075E0
1.704166146E0,-3.469592705E-2,9.668199539E0,-1.040877819E0,9.724130438E0
1.706453622E0,5.204389244E-2,9.711869240E0,-8.267202377E-1,9.747131837E0
1.708732492E0,5.204389244E-2,9.735796928E0,-9.266205430E-1,9.779932312E0
1.711016122E0,2.333002165E-2,9.783653259E0,-9.122636318E-1,9.826120309E0
1.713299203E0,3.349951655E-2,9.803394318E0,-7.698906660E-1,9.833635849E0
1.715581002E0,-1.495514158E-2,9.754940033E0,-9.595218897E-1,9.802028410E0
1.717858285E0,-1.495514158E-2,9.779465675E0,-7.932206988E-1,9.811593735E0
1.720142464E0,-2.931207791E-2,9.769894600E0,-8.362914920E-1,9.805665870E0
1.722426217E0,-6.281159073E-2,9.774680138E0,-8.979067206E-1,9.816035532E0
1.724710641E0,-4.845465720E-2,9.780064583E0,-7.082754970E-1,9.805797534E0
1.726983773E0,-6.281159073E-2,9.784252167E0,-8.410771489E-1,9.820536978E0
1.729267709E0,-5.324030295E-2,9.775279045E0,-7.555337548E-1,9.804577818E0
1.731553231E0,-4.785645381E-2,9.799206734E0,-6.795616150E-1,9.822858384E0
1.733850045E0,-4.366901144E-2,9.794421196E0,-7.698906660E-1,9.824730286E0
1.736130685E0,-2.871387079E-2,9.784850121E0,-6.604190469E-1,9.807154005E0
1.738410043E0,-3.888336942E-2,9.774680138E0,-8.171489239E-1,9.808853963E0
1.740691049E0,-1.495514158E-2,9.789037704E0,-8.267202377E-1,9.823896843E0
1.742979928E0,-3.409772366E-2,9.775279045E0,-7.411768436E-1,9.803396665E0
1.745263192E0,-5.324030295E-2,9.765109062E0,-9.122636318E-1,9.807773165E0
1.747546700E0,-5.802594870E-2,9.745966911E0,-8.267202377E-1,9.781140240E0
1.749824289E0,-5.802594870E-2,9.736993790E0,-7.507480979E-1,9.766065624E0
1.752112313E0,-1.974078640E-2,9.760323524E0,-8.835497499E-1,9.800253321E0
1.754395028E0,4.187439568E-3,9.779465675E0,-7.555337548E-1,9.808608346E0
1.756679268E0,-1.495514158E-2,9.754940033E0,-9.218349457E-1,9.798411013E0
1.758955636E0,-1.974078640E-2,9.750752449E0,-8.267202377E-1,9.785756454E0
1.761243783E0,5.682953820E-2,9.774680138E0,-7.651050687E-1,9.804743095E0
1.763524179E0,2.333002165E-2,9.745368004E0,-8.883354068E-1,9.785799999E0
1.765810861E0,3.768695518E-2,9.750752449E0,-7.268198729E-1,9.777876086E0
1.768087777E0,4.725824669E-2,9.745966911E0,-7.555337548E-1,9.775322789E0
1.770372750E0,1.854437590E-2,9.745368004E0,-8.691928387E-1,9.784070606E0
1.772659310E0,2.333002165E-2,9.765109062E0,-7.363911867E-1,9.792863282E0
1.774944161E0,1.854437590E-2,9.764511108E0,-8.979067206E-1,9.805725754E0
1.777225228E0,3.768695518E-2,9.745966911E0,-8.027920127E-1,9.779047313E0
1.779504708E0,4.725824669E-2,9.750752449E0,-7.507480979E-1,9.779725424E0
1.781791757E0,2.811566554E-2,9.735796928E0,-8.739784956E-1,9.774986994E0
1.784076547E0,5.204389244E-2,9.765109062E0,-8.171489239E-1,9.799377323E0
1.786358773E0,7.118647546E-2,9.741181374E0,-7.507480979E-1,9.770327772E0
1.788637277E0,8.075776696E-2,9.750154495E0,-8.267202377E-1,9.785473972E0
1.790923837E0,9.571290761E-2,9.751350403E0,-6.317051649E-1,9.772259056E0
1.793208139E0,6.161518395E-2,9.750752449E0,-7.555337548E-1,9.780173874E0
1.795490548E0,6.221338734E-2,9.770493507E0,-6.747759581E-1,9.793964288E0
1.797767709E0,6.221338734E-2,9.751350403E0,-5.796613097E-1,9.768762072E0
1.800044808E0,2.811566554E-2,9.760323524E0,-7.698906660E-1,9.790681153E0
1.802341195E0,1.375873014E-2,9.756135941E0,-6.269195080E-1,9.776267481E0
1.804624825E0,8.973085321E-3,9.745966911E0,-7.172485590E-1,9.772328128E0
1.806908639E0,-1.974078640E-2,9.726823807E0,-8.123632669E-1,9.760708230E0
1.809184335E0,-1.495514158E-2,9.756135941E0,-6.795616150E-1,9.779786099E0
1.811472726E0,-1.974078640E-2,9.750752449E0,-7.555337548E-1,9.779999707E0
1.813755258E0,-2.452643216E-2,9.760921478E0,-7.220342159E-1,9.787620909E0
1.816039315E0,-4.366901144E-2,9.789635658E0,-7.698906660E-1,9.819959518E0
1.818315316E0,-3.409772366E-2,9.751350403E0,-7.316055298E-1,9.778816083E0
1.820600961E0,-1.974078640E-2,9.745966911E0,-7.842476368E-1,9.777489713E0
1.822888315E0,-2.452643216E-2,9.760921478E0,-7.316055298E-1,9.788331640E0
1.825167794E0,-2.452643216E-2,9.774680138E0,-7.651050687E-1,9.804609075E0
1.827440499E0,-1.016949583E-2,9.775279045E0,-7.459624410E-1,9.803705615E0
1.829734749E0,-5.982056609E-4,9.775279045E0,-7.034898400E-1,9.800560123E0
1.832020821E0,-1.974078640E-2,9.755537987E0,-8.554341197E-1,9.792991302E0
1.834307748E0,-1.974078640E-2,9.765109062E0,-7.507480979E-1,9.793945446E0
1.836585884E0,-5.383851007E-3,9.765109062E0,-7.603194118E-1,9.794665364E0
1.838866036E0,-1.974078640E-2,9.740582466E0,-9.170492887E-1,9.783675990E0
1.841152779E0,-2.452643216E-2,9.731609344E0,-7.603194118E-1,9.761296409E0
1.843432625E0,-2.452643216E-2,9.750752449E0,-8.458628058E-1,9.787403065E0
1.845716378E0,-1.974078640E-2,9.731011391E0,-9.266205430E-1,9.775049770E0
1.847996652E0,1.854437590E-2,9.755537987E0,-7.842476368E-1,9.787027621E0
1.850281075E0,4.187439568E-3,9.750752449E0,-8.554341197E-1,9.788205065E0
1.852570016E0,-5.982056609E-4,9.755537987E0,-8.506484628E-1,9.792554548E0
1.854852364E0,1.375873014E-2,9.755537987E0,-8.123632669E-1,9.789312784E0
1.857135873E0,1.375873014E-2,9.755537987E0,-8.219345808E-1,9.790111704E0
1.859415536E0,8.973085321E-3,9.745966911E0,-7.980063558E-1,9.778587101E0
1.861706124E0,8.973085321E-3,9.760921478E0,-7.220342159E-1,9.787594292E0
1.863986398E0,-5.982056609E-4,9.755537987E0,-8.123632669E-1,9.789303134E0
1.866267220E0,-5.982056609E-4,9.745966911E0,-7.411768436E-1,9.774109397E0
1.868544320E0,4.247260094E-2,9.736394882E0,-7.076773047E-1,9.762171705E0
1.870833443E0,1.854437590E-2,9.735796928E0,-8.787640929E-1,9.775393192E0
1.873117379E0,3.768695518E-2,9.755537987E0,-7.124629617E-1,9.781592160E0
1.875404794E0,4.247260094E-2,9.755537987E0,-7.794619799E-1,9.786719895E0
1.877678109E0,4.247260094E-2,9.740582466E0,-8.602197170E-1,9.778585208E0
1.879961740E0,4.247260094E-2,9.741779327E0,-6.939185858E-1,9.766554735E0
1.882247628E0,3.768695518E-2,9.755537987E0,-8.171489239E-1,9.789773955E0
1.884533578E0,3.290131316E-2,9.765109062E0,-8.171489239E-1,9.799294355E0
1.886814828E0,4.247260094E-2,9.760921478E0,-6.987041831E-1,9.785988941E0
1.889094369E0,1.375873014E-2,9.750752449E0,-8.458628058E-1,9.787382005E0
1.891381234E0,3.290131316E-2,9.745966911E0,-7.698906660E-1,9.776384054E0
1.893665658E0,4.725824669E-2,9.760323524E0,-7.459624410E-1,9.788902319E0
1.895946847E0,3.290131316E-2,9.769894600E0,-8.602197170E-1,9.807746987E0
1.898219674E0,5.682953820E-2,9.760323524E0,-7.411768436E-1,9.788589685E0
1.900509408E0,6.640082598E-2,9.745966911E0,-7.794619799E-1,9.777312570E0
1.902798715E0,5.204389244E-2,9.741181374E0,-8.362914920E-1,9.777152274E0
1.905082589E0,5.264209956E-2,9.765109062E0,-7.363911867E-1,9.792976982E0
1.907363839E0,7.118647546E-2,9.741181374E0,-7.746763229E-1,9.772195530E0
1.909641183E0,6.161518395E-2,9.736394882E0,-7.890332937E-1,9.768508344E0
1.911930490E0,4.247260094E-2,9.745966911E0,-7.363911867E-1,9.773839928E0
1.914213266E0,6.640082598E-2,9.755537987E0,-7.932206988E-1,9.787958396E0
1.916496347E0,5.742774159E-2,9.784252167E0,-7.746763229E-1,9.815040082E0
1.918773507E0,4.307080805E-2,9.789635658E0,-7.172485590E-1,9.815969993E0
1.921062447E0,5.264209956E-2,9.769894600E0,-7.316055298E-1,9.797390384E0
1.923345162E0,5.264209956E-2,9.770493507E0,-7.124629617E-1,9.796576853E0
1.925629342E0,7.178468257E-2,9.765109062E0,-7.316055298E-1,9.792739897E0
1.927905221E0,6.221338734E-2,9.765109062E0,-7.268198729E-1,9.792318042E0
1.930190743E0,6.161518395E-2,9.745966911E0,-7.268198729E-1,9.773225394E0
1.932478280E0,6.161518395E-2,9.726823807E0,-7.172485590E-1,9.753427259E0
1.934762459E0,4.247260094E-2,9.732208252E0,-6.699903607E-1,9.755335385E0
1.937043283E0,2.333002165E-2,9.746564865E0,-6.412764788E-1,9.767666379E0
1.939320504E0,-1.974078640E-2,9.765707016E0,-7.220342159E-1,9.792382582E0
1.941601510E0,-4.845465720E-2,9.769894600E0,-8.219345808E-1,9.804527770E0
1.943894113E0,-7.238288224E-2,9.779465675E0,-8.602197170E-1,9.817492864E0
1.946175607E0,-5.802594870E-2,9.784252167E0,-8.506484628E-1,9.821331900E0
1.948460153E0,-2.452643216E-2,9.769894600E0,-8.315058947E-1,9.805245744E0
1.950753671E0,2.333002165E-2,9.774680138E0,-8.219345808E-1,9.809204480E0
1.953026315E0,3.290131316E-2,9.769894600E0,-8.315058947E-1,9.805270269E0
1.955308724E0,5.682953820E-2,9.759725571E0,-8.506484628E-1,9.796891120E0
1.957584603E0,5.204389244E-2,9.754940033E0,-8.554341197E-1,9.792514036E0
1.959866891E0,3.768695518E-2,9.760323524E0,-8.362914920E-1,9.796158383E0
1.962149179E0,2.333002165E-2,9.774680138E0,-8.027920127E-1,9.807619033E0
1.964447213E0,1.375873014E-2,9.755537987E0,-7.794619799E-1,9.786637405E0
1.966716927E0,4.187439568E-3,9.760323524E0,-7.603194118E-1,9.789893689E0
1.969006112E0,2.333002165E-2,9.750752449E0,-7.411768436E-1,9.778908974E0
1.971289254E0,1.375873014E-2,9.751350403E0,-7.082754970E-1,9.777048540E0
1.973575692E0,-5.982056609E-4,9.765109062E0,-7.411768436E-1,9.793196540E0
1.975858284E0,-4.785645287E-3,9.793823242E0,-7.651050687E-1,9.823664406E0
1.978133858E0,1.854437590E-2,9.760323524E0,-7.932206988E-1,9.792520527E0
1.980421029E0,3.768695518E-2,9.750752449E0,-7.980063558E-1,9.783425155E0
1.982711496E0,4.247260094E-2,9.765109062E0,-7.746763229E-1,9.795880886E0
1.984991342E0,4.725824669E-2,9.745966911E0,-7.980063558E-1,9.778697179E0
1.987273141E0,4.725824669E-2,9.755537987E0,-7.842476368E-1,9.787124149E0
1.989549874E0,3.290131316E-2,9.760323524E0,-7.932206988E-1,9.792558240E0
1.991838266E0,4.187439568E-3,9.769894600E0,-7.980063558E-1,9.802431952E0
1.994122628E0,-5.383851007E-3,9.765109062E0,-8.219345808E-1,9.799640832E0
1.996406075E0,-5.383851007E-3,9.760323524E0,-7.980063558E-1,9.792893262E0
1.998681893E0,-1.495514158E-2,9.760323524E0,-8.027920127E-1,9.793294337E0
2.000971322E0,-5.383851007E-3,9.769894600E0,-8.075776696E-1,9.803216369E0
2.003254709E0,-1.495514158E-2,9.769894600E0,-7.890332937E-1,9.801716058E0
2.005536874E0,-5.383851007E-3,9.765109062E0,-7.842476368E-1,9.796551860E0
2.007808602E0,-2.931207791E-2,9.760921478E0,-7.507480979E-1,9.789794176E0
2.010098641E0,-5.383851007E-3,9.760921478E0,-6.939185858E-1,9.785557730E0
2.012387825E0,-9.571290575E-3,9.770493507E0,-6.083751321E-1,9.789420580E0
2.014672310E0,-4.785645287E-3,9.766305923E0,-5.748756528E-1,9.783211963E0
2.016953439E0,-2.452643216E-2,9.756135941E0,-6.364908218E-1,9.776907006E0
2.019229318E0,-4.366901144E-2,9.751350403E0,-6.795616150E-1,9.775098242E0
2.021514840E0,-5.324030295E-2,9.736394882E0,-7.794619799E-1,9.767690659E0
2.023801155E0,-5.802594870E-2,9.741181374E0,-8.267202377E-1,9.776371920E0
2.026077340E0,-5.324030295E-2,9.765109062E0,-8.362914920E-1,9.800998571E0
2.028363778E0,-1.495514158E-2,9.755537987E0,-8.506484628E-1,9.792565949E0
2.030647165E0,2.811566554E-2,9.760323524E0,-8.506484628E-1,9.797362329E0
2.032936410E0,5.204389244E-2,9.760323524E0,-8.315058947E-1,9.795816756E0
2.035219735E0,5.682953820E-2,9.779465675E0,-8.315058947E-1,9.814916227E0
2.037500558E0,6.161518395E-2,9.774680138E0,-8.123632669E-1,9.808572898E0
2.039780221E0,9.032905847E-2,9.755537987E0,-8.123632669E-1,9.789719854E0
2.042067941E0,6.161518395E-2,9.745966911E0,-8.171489239E-1,9.780357858E0
2.044350900E0,4.725824669E-2,9.750752449E0,-8.171489239E-1,9.785046705E0
2.046633187E0,3.290131316E-2,9.755537987E0,-8.315058947E-1,9.790965527E0
2.048913094E0,5.204389244E-2,9.726823807E0,-8.171489239E-1,9.761226475E0
2.051199105E0,3.768695518E-2,9.745966911E0,-7.932206988E-1,9.778266228E0
2.053483529E0,6.161518395E-2,9.750752449E0,-8.123632669E-1,9.784728092E0
2.055765206E0,5.682953820E-2,9.765109062E0,-7.932206988E-1,9.797437607E0
2.058043892E0,6.161518395E-2,9.755537987E0,-7.698906660E-1,9.786064044E0
2.060325326E0,7.597211748E-2,9.765109062E0,-7.836494446E-1,9.796797089E0
2.062605294E0,6.161518395E-2,9.765109062E0,-7.836494446E-1,9.796696274E0
2.064899057E0,6.640082598E-2,9.760323524E0,-7.746763229E-1,9.791243423E0
2.067181954E0,6.161518395E-2,9.750752449E0,-7.459624410E-1,9.779439131E0
2.069462044E0,5.682953820E-2,9.745966911E0,-7.555337548E-1,9.775373747E0
2.071748666E0,6.161518395E-2,9.750752449E0,-7.555337548E-1,9.780173874E0
2.074030343E0,7.118647546E-2,9.750752449E0,-7.220342159E-1,9.777708026E0
2.076314828E0,6.161518395E-2,9.760323524E0,-7.316055298E-1,9.787898568E0
2.078589913E0,6.161518395E-2,9.745966911E0,-7.268198729E-1,9.773225394E0
2.080869210E0,3.768695518E-2,9.726823807E0,-7.459624410E-1,9.755459069E0
2.083162911E0,3.290131316E-2,9.765109062E0,-7.698906660E-1,9.795466764E0
2.085448434E0,1.854437590E-2,9.769894600E0,-7.746763229E-1,9.800576911E0
2.087729318E0,1.375873014E-2,9.765109062E0,-7.980063558E-1,9.797671072E0
2.090005624E0,-1.495514158E-2,9.765109062E0,-7.884350419E-1,9.796897900E0
2.092283883E0,-1.016949583E-2,9.745966911E0,-7.555337548E-1,9.775213845E0
2.094580270E0,1.375873014E-2,9.755537987E0,-7.698906660E-1,9.785879743E0
2.096862496E0,2.392822690E-2,9.793823242E0,-7.507480979E-1,9.822584638E0
2.099142892E0,2.333002165E-2,9.765109062E0,-7.651050687E-1,9.795064321E0
2.101423531E0,8.973085321E-3,9.775279045E0,-7.363911867E-1,9.802980817E0
2.103713327E0,-5.982056609E-4,9.775279045E0,-7.363911867E-1,9.802976729E0
2.105994149E0,-5.982056609E-4,9.770493507E0,-7.268198729E-1,9.797490029E0
2.108273202E0,-1.016949583E-2,9.760921478E0,-7.172485590E-1,9.787243586E0
2.110554940E0,-5.383851007E-3,9.760921478E0,-7.220342159E-1,9.787591660E0
2.112844796E0,-1.016949583E-2,9.765707016E0,-7.268198729E-1,9.792721995E0
2.115127816E0,-1.974078640E-2,9.770493507E0,-7.220342159E-1,9.797156041E0
2.117406930E0,-1.495514158E-2,9.746564865E0,-7.268198729E-1,9.773638905E0
2.119688424E0,-5.383851007E-3,9.756135941E0,-7.082754970E-1,9.781813311E0
2.121978097E0,9.571290575E-3,9.770493507E0,-6.843472719E-1,9.794435470E0
2.124256967E0,-1.495514158E-2,9.756135941E0,-6.939185858E-1,9.780794198E0
2.126531564E0,4.187439568E-3,9.741779327E0,-6.939185858E-1,9.766463280E0
2.128820016E0,8.973085321E-3,9.736993790E0,-6.939185858E-1,9.761693069E0
2.131109628E0,-5.982056609E-4,9.732208252E0,-6.987041831E-1,9.757257061E0
2.133395821E0,4.187439568E-3,9.722636223E0,-6.987041831E-1,9.747710510E0
2.135675607E0,1.854437590E-2,9.722038269E0,-7.034898400E-1,9.747475055E0
2.137951546E0,2.333002165E-2,9.717252731E0,-7.034898400E-1,9.742712296E0
2.140236581E0,1.375873014E-2,9.751350403E0,-6.843472719E-1,9.775344248E0
2.142524057E0,1.854437590E-2,9.760921478E0,-7.034898400E-1,9.786257198E0
2.144809396E0,4.187439568E-3,9.736993790E0,-7.034898400E-1,9.762374893E0
2.147089975E0,4.187439568E-3,9.756135941E0,-7.124629617E-1,9.782116821E0
2.149370675E0,1.854437590E-2,9.760323524E0,-7.507480979E-1,9.789171666E0
2.151658273E0,8.973085321E-3,9.769894600E0,-7.555337548E-1,9.799068949E0
2.153928842E0,1.375873014E-2,9.750752449E0,-7.411768436E-1,9.778890824E0
2.156222543E0,2.811566554E-2,9.760323524E0,-7.794619799E-1,9.791438442E0
2.158500802E0,2.811566554E-2,9.760323524E0,-7.746763229E-1,9.791058635E0
2.160788705E0,5.204389244E-2,9.750752449E0,-8.075776696E-1,9.784276344E0
2.163061349E0,6.161518395E-2,9.741181374E0,-7.459624410E-1,9.769896158E0
2.165354806E0,6.640082598E-2,9.755537987E0,-7.411768436E-1,9.783878249E0
2.167633431E0,5.204389244E-2,9.760323524E0,-7.459624410E-1,9.788926592E0
2.169920296E0,3.828516230E-2,9.774680138E0,-7.268198729E-1,9.801739880E0
2.172205697E0,3.768695518E-2,9.736394882E0,-7.034898400E-1,9.761849393E0
2.174488594E0,4.307080805E-2,9.808777809E0,-6.556333899E-1,9.830759500E0
2.176771371E0,-3.828516230E-2,9.804591179E0,-6.460621357E-1,9.825928466E0
2.179045968E0,-3.409772366E-2,9.760921478E0,-6.939185858E-1,9.785615656E0
2.181326364E0,-3.409772366E-2,9.756135941E0,-7.034898400E-1,9.781525909E0
2.183620187E0,-7.238288224E-2,9.765109062E0,-7.980063558E-1,9.797928782E0
2.185904183E0,-7.716853172E-2,9.780064583E0,-7.794619799E-1,9.811380087E0
2.188184213E0,-7.238288224E-2,9.760323524E0,-7.890332937E-1,9.792432186E0
2.190465585E0,-8.673982322E-2,9.755537987E0,-7.842476368E-1,9.787394422E0
2.192752633E0,-8.195417374E-2,9.780064583E0,-7.794619799E-1,9.811418894E0
2.195038582E0,-8.195417374E-2,9.755537987E0,-7.890332937E-1,9.787737810E0
2.197318490E0,-5.324030295E-2,9.756135941E0,-7.507480979E-1,9.785123695E0
2.199598275E0,-4.366901144E-2,9.770493507E0,-7.220342159E-1,9.797233475E0
2.201884591E0,-4.307080805E-2,9.799206734E0,-7.268198729E-1,9.826218745E0
2.204169381E0,-4.845465720E-2,9.780064583E0,-7.172485590E-1,9.806449745E0
2.206452828E0,-3.409772366E-2,9.770493507E0,-7.124629617E-1,9.796494756E0
2.208732980E0,-3.888336942E-2,9.751350403E0,-6.987041831E-1,9.776427473E0
2.211017221E0,-6.281159073E-2,9.736993790E0,-7.130611539E-1,9.763270434E0
2.213301278E0,-6.759724021E-2,9.732208252E0,-7.316055298E-1,9.759902330E0
2.215582711E0,-7.238288224E-2,9.746564865E0,-7.316055298E-1,9.774252534E0
2.217861703E0,-6.759724021E-2,9.765707016E0,-7.507480979E-1,9.794755005E0
2.220143868E0,-3.888336942E-2,9.751350403E0,-7.459624410E-1,9.779918535E0
2.222429940E0,-4.845465720E-2,9.741779327E0,-7.178468108E-1,9.768311848E0
2.224716683E0,-3.409772366E-2,9.746564865E0,-7.363911867E-1,9.774403373E0
2.227000314E0,-3.409772366E-2,9.741181374E0,-7.555337548E-1,9.770496838E0
2.229275338E0,-5.324030295E-2,9.746564865E0,-7.316055298E-1,9.774129519E0
2.231555184E0,-6.699903309E-2,9.813564301E0,-7.220342159E-1,9.840318418E0
2.233848458E0,-1.010967568E-1,9.803992271E0,-7.034898400E-1,9.829719374E0
2.236132699E0,-7.238288224E-2,9.756135941E0,-7.316055298E-1,9.783796524E0
2.238411752E0,-9.631111473E-2,9.741181374E0,-7.938188910E-1,9.773946942E0
2.240695626E0,-9.152546525E-2,9.765109062E0,-8.171489239E-1,9.799666539E0
2.242982247E0,-1.016949639E-1,9.707681656E0,-8.081758618E-1,9.741795174E0
2.245268257E0,-8.673982322E-2,9.803992271E0,-7.842476368E-1,9.835691771E0
2.247547128E0,-1.202393398E-1,9.769894600E0,-9.409775138E-1,9.815841109E0
2.249826303E0,-9.631111473E-2,9.750752449E0,-8.267202377E-1,9.786210477E0
2.252113717E0,-9.152546525E-2,9.755537987E0,-7.986045480E-1,9.788598855E0
2.254400644E0,-1.112662554E-1,9.712467194E0,-8.171489239E-1,9.747416659E0
2.256679513E0,-7.716853172E-2,9.726823807E0,-7.986045480E-1,9.759857866E0
2.258959054E0,-1.010967568E-1,9.755537987E0,-8.267202377E-1,9.791026929E0
2.261243050E0,-1.106680483E-1,9.793823242E0,-8.883354068E-1,9.834651031E0
2.263518624E0,-1.250249892E-1,9.774680138E0,-8.979067206E-1,9.816630762E0
2.265812142E0,-1.399801224E-1,9.750752449E0,-9.505487680E-1,9.797974827E0
2.268090951E0,-1.495514214E-1,9.716654778E0,-9.696913958E-1,9.766066101E0
2.270376229E0,-1.639083475E-1,9.668798447E0,-9.505487680E-1,9.716793314E0
2.272662484E0,-1.549352705E-1,9.635298729E0,-1.012163997E0,9.689554298E0
2.274945382E0,-1.304088384E-1,9.731011391E0,-1.021735311E0,9.785373380E0
2.277229012E0,-2.315055877E-1,9.659226418E0,-9.696913958E-1,9.710538153E0
2.279507455E0,-3.326023519E-1,9.534201622E0,-1.117448211E0,9.605223339E0
2.281794992E0,-2.955136001E-1,9.376275063E0,-1.046261668E0,9.439095604E0
2.284076730E0,-2.380858511E-1,9.227920532E0,-8.327022791E-1,9.268473192E0
2.286360543E0,-4.761717021E-1,8.585447311E0,-7.579265833E-1,8.631981101E0
2.288638253E0,-1.140179992E0,6.008975983E0,2.063809484E-1,6.119672856E0
2.290927438E0,7.549355626E-1,6.308078766E0,5.222335458E-1,6.374520633E0
2.293209664E0,6.209374666E-1,6.261418819E0,7.597211599E-1,6.337831270E0
2.295494027E0,-1.112064362E0,5.053641319E0,2.333002090E-1,5.179807594E0
2.297770699E0,-3.429512978E0,2.776272535E0,-3.886542082E0,5.880004916E0
2.300055246E0,-3.389433384E0,1.230509043E0,-3.803391695E0,5.241011310E0
2.302341928E0,-2.788834810E0,4.725824594E-1,-3.391227961E0,4.416034518E0
2.304627266E0,-1.768894196E0,1.256231815E-1,-3.081955671E0,3.555730392E0
2.306908090E0,-8.374879360E-1,-5.862415433E-1,-2.844467878E0,3.022592050E0
2.309187814E0,-7.728816867E-1,-1.074975610E0,-2.621935368E0,2.937254455E0
2.311474191E0,-7.058826685E-1,-1.255633712E0,-2.199602127E0,2.629284290E0
2.313758920E0,-7.208378315E-1,-1.284347534E0,-2.152343988E0,2.608014650E0
2.316041513E0,-7.543373108E-1,-1.326820135E0,-2.009970903E0,2.523778810E0
2.318318734E0,-5.617151260E-1,-1.245464206E0,-1.952543259E0,2.383092560E0
2.320601876E0,-4.313062727E-1,-1.058225870E0,-1.852044702E0,2.176220731E0
2.322890694E0,-1.375873014E-2,-3.810569942E-1,-4.636093974E-1,6.002727787E-1
2.325174691E0,1.363908947E-1,-1.495514214E-1,-5.443671346E-2,2.095983291E-1
2.327459603E0,1.507478207E-1,-1.543370634E-1,-2.093719877E-2,2.167560862E-1
2.329735482E0,1.028913707E-1,-1.728814393E-1,3.589234129E-2,2.043596985E-1
2.332023812E0,1.268195957E-1,-1.537388563E-1,1.196411345E-2,1.996546664E-1
2.334305977E0,1.459621787E-1,-1.489532143E-1,1.196411345E-2,2.088903006E-1
2.336589486E0,1.268195957E-1,-1.680957973E-1,4.067798331E-2,2.144623632E-1
2.338867318E0,1.220339537E-1,-1.633101404E-1,2.632104978E-2,2.055609045E-1
2.341153817E0,1.459621787E-1,-1.393819153E-1,2.392822644E-3,2.018365714E-1
2.343424447E0,1.124626622E-1,-1.728814393E-1,1.196411345E-2,2.065889214E-1
2.345713448E0,1.363908947E-1,-1.489532143E-1,1.674975827E-2,2.026575698E-1
2.347984689E0,1.411765367E-1,-1.639083475E-1,1.196411345E-2,2.166561813E-1
2.350272714E0,1.220339537E-1,-1.686939895E-1,2.392822644E-3,2.082202525E-1
2.352559212E0,1.076770201E-1,-1.537388563E-1,1.196411345E-2,1.880774219E-1
2.354840096E0,1.459621787E-1,-1.639083475E-1,1.196411345E-2,2.198045586E-1
2.357125497E0,1.172483116E-1,-1.585244983E-1,2.392822644E-3,1.971874965E-1
2.359409189E0,1.316052526E-1,-1.489532143E-1,1.196411345E-2,1.991234355E-1
2.361691415E0,1.459621787E-1,-1.495514214E-1,7.178467698E-3,2.090983397E-1
2.363975412E0,1.268195957E-1,-1.633101404E-1,2.632104978E-2,2.084375433E-1
2.366258065E0,1.316052526E-1,-1.537388563E-1,7.178467698E-3,2.025021206E-1
2.368545785E0,1.316052526E-1,-1.543370634E-1,-1.674975827E-2,2.035200876E-1
2.370839669E0,1.316052526E-1,-1.776670814E-1,5.922235921E-2,2.288947840E-1
2.373123300E0,1.459621787E-1,-1.543370634E-1,-2.572284266E-2,2.139779227E-1
2.375407418E0,1.459621787E-1,-1.639083475E-1,1.674975827E-2,2.201169198E-1
2.377680673E0,1.268195957E-1,-1.639083475E-1,-1.196411345E-2,2.075868402E-1
2.379963021E0,1.220339537E-1,-1.585244983E-1,6.879365444E-2,2.115534668E-1
2.382251046E0,1.363908947E-1,-1.543370634E-1,-1.674975827E-2,2.066469446E-1
2.384534920E0,1.411765367E-1,-1.489532143E-1,7.357929647E-2,2.180178603E-1
2.386818490E0,1.316052526E-1,-1.734796464E-1,-7.178467698E-3,2.178684480E-1
2.389096566E0,1.316052526E-1,-1.633101404E-1,3.589234129E-2,2.127872285E-1
2.391384652E0,1.363908947E-1,-1.591227055E-1,-3.529413417E-2,2.125280862E-1
2.393666574E0,1.555334777E-1,-1.639083475E-1,-2.392822644E-3,2.259697649E-1
2.395949044E0,1.363908947E-1,-1.345962733E-1,1.674975827E-2,1.923517282E-1
2.398221810E0,1.411765367E-1,-1.537388563E-1,2.153540403E-2,2.098338011E-1
2.400512338E0,1.507478207E-1,-1.345962733E-1,6.460621208E-2,2.121674454E-1
2.402799203E0,1.363908947E-1,-1.591227055E-1,-7.178467698E-3,2.096998854E-1
2.405085824E0,1.603191197E-1,-1.489532143E-1,3.589234129E-2,2.217600964E-1
2.407366342E0,1.411765367E-1,-1.489532143E-1,1.196411345E-2,2.055748393E-1
2.409644845E0,1.316052526E-1,-1.441675574E-1,2.632104978E-2,1.969696037E-1
2.411931771E0,1.411765367E-1,-1.680957973E-1,2.632104978E-2,2.210877863E-1
2.414216377E0,1.459621787E-1,-1.591227055E-1,-2.392822644E-3,2.159414703E-1
2.416497628E0,1.459621787E-1,-1.393819153E-1,2.632104978E-2,2.035315052E-1
2.418777169E0,1.459621787E-1,-1.495514214E-1,7.178467698E-3,2.090983397E-1
2.421063668E0,1.268195957E-1,-1.633101404E-1,1.674975827E-2,2.074462972E-1
2.423348275E0,1.363908947E-1,-1.441675574E-1,2.153540403E-2,1.996259862E-1
2.425629342E0,1.507478207E-1,-1.441675574E-1,2.153540403E-2,2.096973144E-1
2.427908822E0,1.268195957E-1,-1.441675574E-1,2.153540403E-2,1.932130122E-1
2.430191476E0,1.603191197E-1,-1.441675574E-1,1.674975827E-2,2.162569285E-1
2.432481027E0,1.411765367E-1,-1.441675574E-1,3.110669367E-2,2.041634774E-1
2.434763619E0,1.316052526E-1,-1.393819153E-1,2.632104978E-2,1.934943371E-1
2.437046396E0,1.411765367E-1,-1.447657645E-1,-2.392822644E-3,2.022218254E-1
2.439319650E0,1.507478207E-1,-1.393819153E-1,4.067798331E-2,2.093010323E-1
2.441601693E0,1.459621787E-1,-1.537388563E-1,2.153540403E-2,2.130830054E-1
2.443896066E0,1.459621787E-1,-1.441675574E-1,3.110669367E-2,2.075014906E-1
2.446179452E0,1.555334777E-1,-1.304088384E-1,-2.392822644E-3,2.029848600E-1
2.448458383E0,1.651047617E-1,-1.393819153E-1,2.632104978E-2,2.176687812E-1
2.450740548E0,1.555334777E-1,-1.537388563E-1,2.153540403E-2,2.197500222E-1
2.453027475E0,1.555334777E-1,-1.489532143E-1,2.632104978E-2,2.169574161E-1
2.455311715E0,1.555334777E-1,-1.250249892E-1,2.392822644E-3,1.995686253E-1
2.457589425E0,1.363908947E-1,-1.250249892E-1,1.674975827E-2,1.857801886E-1
2.459873483E0,1.603191197E-1,-1.298106313E-1,2.153540403E-2,2.074049029E-1
2.462162301E0,1.411765367E-1,-1.393819153E-1,1.674975827E-2,1.990946690E-1
2.464447030E0,1.411765367E-1,-1.393819153E-1,2.632104978E-2,2.001272857E-1
2.466716683E0,1.411765367E-1,-1.298106313E-1,4.067798331E-2,1.960518116E-1
2.469005379E0,1.411765367E-1,-1.345962733E-1,3.589234129E-2,1.983311157E-1
2.471291329E0,1.507478207E-1,-1.591227055E-1,1.674975827E-2,2.198306058E-1
2.473579110E0,1.363908947E-1,-1.489532143E-1,2.153540403E-2,2.031091082E-1
2.475858468E0,1.507478207E-1,-1.345962733E-1,2.632104978E-2,2.037985768E-1
2.478137337E0,1.459621787E-1,-1.298106313E-1,3.110669367E-2,1.977963195E-1
2.480423593E0,1.555334777E-1,-1.250249892E-1,3.110669367E-2,2.019641973E-1
2.482715707E0,1.459621787E-1,-1.298106313E-1,2.632104978E-2,1.971003685E-1
2.484992563E0,1.411765367E-1,-1.298106313E-1,2.632104978E-2,1.935830885E-1
2.487276009E0,1.603191197E-1,-1.441675574E-1,4.067798331E-2,2.194110368E-1
2.489550973E0,1.459621787E-1,-1.250249892E-1,7.178467698E-3,1.923219591E-1
2.491841622E0,1.459621787E-1,-1.298106313E-1,1.022931710E-1,2.204986404E-1
2.494120370E0,1.555334777E-1,-1.298106313E-1,7.178467698E-3,2.027140673E-1
2.496396737E0,1.603191197E-1,-1.441675574E-1,6.879365444E-2,2.263163088E-1
2.498684640E0,1.316052526E-1,-1.256231815E-1,-1.615155302E-2,1.826526729E-1
2.500974069E0,1.459621787E-1,-1.250249892E-1,4.067798331E-2,1.964456767E-1
2.503258980E0,1.316052526E-1,-1.250249892E-1,1.196411345E-2,1.819184720E-1
2.505540475E0,1.651047617E-1,-1.298106313E-1,4.067798331E-2,2.139277464E-1
2.507816293E0,1.459621787E-1,-1.298106313E-1,1.196411345E-2,1.957010414E-1
2.510101815E0,1.507478207E-1,-1.250249892E-1,1.674975827E-2,1.965622237E-1
2.512389230E0,1.459621787E-1,-1.345962733E-1,6.879365444E-2,2.101277737E-1
2.514674141E0,1.603191197E-1,-1.250249892E-1,2.153540403E-2,2.044437373E-1
2.516953988E0,1.507478207E-1,-1.351944804E-1,-2.392822644E-3,2.025047619E-1
2.519225534E0,1.603191197E-1,-1.441675574E-1,1.405783296E-1,2.573883670E-1
2.521514291E0,1.651047617E-1,-1.304088384E-1,-2.392822644E-3,2.104085860E-1
2.523806222E0,1.651047617E-1,-1.250249892E-1,1.166501045E-1,2.376932417E-1
2.526093637E0,1.507478207E-1,-1.256231815E-1,-1.136590727E-2,1.965585740E-1
2.528367318E0,1.603191197E-1,-1.250249892E-1,5.024927482E-2,2.094241096E-1
2.530648751E0,1.411765367E-1,-1.202393398E-1,1.214357466E-1,2.216640563E-1
2.532936654E0,1.411765367E-1,-1.304088384E-1,-5.443671346E-2,1.997514341E-1
2.535221688E0,1.603191197E-1,-1.441675574E-1,8.793623000E-2,2.328503495E-1
2.537503732E0,1.507478207E-1,-1.304088384E-1,-1.615155302E-2,1.999806072E-1
2.539781198E0,1.651047617E-1,-1.298106313E-1,3.110669367E-2,2.123158231E-1
2.542070199E0,1.507478207E-1,-1.202393398E-1,8.315058798E-2,2.099914869E-1
2.544352121E0,1.411765367E-1,-1.298106313E-1,4.546362907E-2,1.971003705E-1
2.546636056E0,1.411765367E-1,-1.202393398E-1,4.546362907E-2,1.909325926E-1
2.548913339E0,1.609173268E-1,-1.298106313E-1,1.453639716E-1,2.527367609E-1
2.551202828E0,1.459621787E-1,-1.202393398E-1,2.632104978E-2,1.909325905E-1
2.553485971E0,1.555334777E-1,-1.202393398E-1,9.272187948E-2,2.173603194E-1
2.555768685E0,1.411765367E-1,-1.106680483E-1,7.836493850E-2,1.957531481E-1
2.558045113E0,1.316052526E-1,-1.250249892E-1,2.392822644E-3,1.815403979E-1
2.560329660E0,1.704886109E-1,-1.058823988E-1,1.166501045E-1,2.321307728E-1
2.562611398E0,1.459621787E-1,-1.208375469E-1,-1.615155302E-2,1.901776617E-1
2.564902169E0,1.459621787E-1,-1.250249892E-1,1.070788130E-1,2.200047221E-1
2.567182869E0,1.459621787E-1,-1.250249892E-1,8.793623000E-2,2.113503870E-1
2.569464181E0,1.555334777E-1,-1.393819153E-1,6.879365444E-2,2.198875801E-1
2.571750619E0,1.651047617E-1,-1.250249892E-1,5.024927482E-2,2.131098775E-1
2.574033578E0,1.704886109E-1,-1.100698411E-1,1.543370634E-1,2.549542420E-1
2.576315927E0,1.411765367E-1,-1.345962733E-1,3.110669367E-2,1.975211323E-1
2.578595285E0,1.555334777E-1,-1.393819153E-1,1.166501045E-1,2.392179506E-1
2.580881967E0,1.465603858E-1,-1.106680483E-1,1.118644550E-1,2.150372524E-1
2.583166268E0,1.651047617E-1,-1.154536903E-1,4.546362907E-2,2.065334804E-1
2.585449044E0,1.555334777E-1,-1.154536903E-1,6.460621208E-2,2.041915275E-1
2.587727914E0,1.603191197E-1,-1.393819153E-1,7.836493850E-2,2.264301262E-1
2.590007821E0,1.561316848E-1,-1.154536903E-1,1.262213886E-1,2.315998630E-1
2.592287301E0,1.555334777E-1,-1.154536903E-1,5.024927482E-2,2.001129853E-1
2.594581551E0,1.513460279E-1,-1.106680483E-1,1.214357466E-1,2.233823574E-1
2.596863717E0,1.561316848E-1,-1.058823988E-1,6.460621208E-2,1.994044834E-1
2.599140328E0,1.704886109E-1,-1.154536903E-1,1.262213886E-1,2.415114075E-1
2.601426828E0,1.513460279E-1,-1.154536903E-1,9.750752151E-2,2.138758787E-1
2.603711984E0,1.465603858E-1,-1.106680483E-1,1.070788130E-1,2.125870076E-1
2.605998361E0,1.369891018E-1,-1.004985496E-1,1.070788130E-1,2.008278982E-1
2.608275522E0,1.417747438E-1,-1.010967568E-1,9.750752151E-2,1.995704110E-1
2.610558969E0,1.561316848E-1,-1.058823988E-1,1.118644550E-1,2.193213206E-1
2.612845590E0,1.609173268E-1,-1.154536903E-1,1.166501045E-1,2.298503590E-1
2.615129524E0,1.417747438E-1,-1.058823988E-1,1.070788130E-1,2.068260925E-1
2.617407418E0,1.513460279E-1,-1.010967568E-1,1.118644550E-1,2.136348068E-1
2.619691537E0,1.555334777E-1,-1.250249892E-1,1.022931710E-1,2.242449630E-1
2.621978219E0,1.609173268E-1,-1.058823988E-1,1.070788130E-1,2.203890665E-1
2.624259713E0,1.609173268E-1,-1.052841991E-1,1.405783296E-1,2.382045663E-1
2.626528329E0,1.561316848E-1,-1.004985496E-1,1.357926875E-1,2.300363351E-1
2.628823556E0,1.465603858E-1,-1.052841991E-1,1.262213886E-1,2.202193184E-1
2.631110909E0,1.609173268E-1,-1.202393398E-1,1.357926875E-1,2.424696659E-1
2.633400765E0,1.561316848E-1,-1.148554832E-1,1.405783296E-1,2.394392444E-1
2.635676644E0,1.369891018E-1,-8.614161611E-2,1.549352705E-1,2.240342163E-1
2.637954964E0,1.417747438E-1,-9.571290761E-2,1.405783296E-1,2.214120715E-1
2.640237680E0,1.561316848E-1,-1.100698411E-1,1.501496136E-1,2.429760881E-1
2.642527780E0,1.465603858E-1,-1.100698411E-1,1.501496136E-1,2.369392814E-1
2.644811592E0,1.322034448E-1,-1.196411327E-1,1.453639716E-1,2.300487681E-1
2.647093392E0,1.513460279E-1,-1.052841991E-1,1.543370634E-1,2.404377505E-1
2.649370736E0,1.603191197E-1,-1.298106313E-1,1.357926875E-1,2.469669494E-1
2.651659677E0,1.561316848E-1,-1.250249892E-1,1.357926875E-1,2.417602219E-1
2.653941537E0,1.369891018E-1,-1.004985496E-1,1.453639716E-1,2.235993218E-1
2.656225961E0,1.609173268E-1,-9.092725813E-2,1.549352705E-1,2.411785446E-1
2.658503183E0,1.752742529E-1,-1.148554832E-1,1.639083475E-1,2.660428389E-1
2.660789559E0,1.609173268E-1,-1.052841991E-1,1.549352705E-1,2.469495631E-1
2.663063851E0,1.459621787E-1,-1.292124242E-1,1.591227055E-1,2.516363320E-1
2.665358468E0,1.561316848E-1,-1.148554832E-1,1.591227055E-1,2.507766345E-1
2.667634408E0,1.561316848E-1,-1.148554832E-1,1.734796464E-1,2.601231876E-1
2.669922371E0,1.561316848E-1,-9.092725813E-2,1.686939895E-1,2.471892622E-1
2.672206674E0,1.417747438E-1,-9.092725813E-2,1.782652885E-1,2.452475430E-1
2.674492196E0,1.465603858E-1,-9.571290761E-2,1.501496136E-1,2.306204975E-1
2.676772531E0,1.417747438E-1,-9.571290761E-2,1.734796464E-1,2.436313329E-1
2.679052377E0,1.465603858E-1,-9.571290761E-2,1.782652885E-1,2.498387889E-1
2.681340158E0,1.465603858E-1,-1.004985496E-1,1.734796464E-1,2.483447058E-1
2.683623422E0,1.465603858E-1,-9.092725813E-2,1.878365725E-1,2.550103742E-1
2.685905160E0,1.513460279E-1,-9.092725813E-2,1.878365725E-1,2.577905437E-1
2.688183175E0,1.561316848E-1,-1.052841991E-1,1.878365725E-1,2.659782765E-1
2.690466683E0,1.417747438E-1,-1.004985496E-1,1.926222295E-1,2.594289108E-1
2.692755990E0,1.465603858E-1,-1.100698411E-1,1.926222295E-1,2.658921584E-1
2.695038887E0,1.322034448E-1,-1.052841991E-1,2.213360965E-1,2.784819223E-1
2.697322213E0,1.513460279E-1,-1.100698411E-1,2.069791555E-1,2.790364867E-1
2.699600412E0,1.322034448E-1,-9.571290761E-2,1.974078715E-1,2.561417171E-1
2.701888375E0,1.369891018E-1,-9.571290761E-2,2.165504545E-1,2.735344111E-1
2.704170785E0,1.417747438E-1,-9.571290761E-2,2.213360965E-1,2.797332770E-1
2.706454781E0,1.322034448E-1,-9.092725813E-2,1.926222295E-1,2.506967100E-1
2.708730233E0,1.465603858E-1,-1.100698411E-1,2.117647976E-1,2.800707877E-1
2.711020333E0,1.465603858E-1,-9.571290761E-2,2.309073806E-1,2.897570116E-1
2.713302560E0,1.274178028E-1,-1.004985496E-1,2.398804724E-1,2.896168089E-1
2.715587350E0,1.369891018E-1,-9.571290761E-2,2.350948304E-1,2.884381285E-1
2.717863961E0,1.369891018E-1,-8.614161611E-2,2.261217386E-1,2.780601242E-1
2.720147286E0,1.465603858E-1,-9.092725813E-2,2.398804724E-1,2.954494102E-1
2.722430550E0,1.369891018E-1,-9.092725813E-2,2.350948304E-1,2.868856210E-1
2.724714486E0,1.369891018E-1,-1.004985496E-1,2.350948304E-1,2.900612897E-1
2.726989816E0,1.274178028E-1,-8.135596663E-2,2.213360965E-1,2.680368583E-1
2.729278695E0,1.369891018E-1,-9.571290761E-2,2.446661144E-1,2.962912119E-1
2.731556710E0,1.322034448E-1,-1.004985496E-1,2.350948304E-1,2.878320493E-1
2.733854805E0,1.226321608E-1,-8.554340899E-2,2.494517565E-1,2.908307076E-1
2.736134896E0,1.322034448E-1,-9.511470050E-2,2.494517565E-1,2.979106173E-1
2.738415109E0,1.322034448E-1,-8.075776696E-2,2.685943544E-1,3.100685327E-1
2.740696176E0,1.322034448E-1,-8.075776696E-2,2.590230405E-1,3.018153463E-1
2.742984018E0,1.369891018E-1,-8.554340899E-2,2.542374134E-1,3.011981926E-1
2.745267708E0,1.465603858E-1,-7.657032460E-2,2.309073806E-1,2.840091191E-1
2.747550362E0,1.322034448E-1,-8.075776696E-2,2.542374134E-1,2.977183738E-1
2.749827523E0,1.322034448E-1,-8.554340899E-2,2.542374134E-1,2.990519821E-1
2.752117989E0,1.465603858E-1,-8.554340899E-2,2.590230405E-1,3.096620045E-1
2.754403634E0,1.322034448E-1,-8.554340899E-2,2.685943544E-1,3.113492458E-1
2.756682992E0,1.322034448E-1,-8.554340899E-2,2.877369225E-1,3.280060399E-1
2.758960031E0,1.226321608E-1,-8.554340899E-2,2.973082066E-1,3.327889592E-1
2.761247933E0,1.226321608E-1,-9.032905847E-2,2.925225794E-1,3.297990981E-1
2.763531320E0,1.226321608E-1,-7.597211748E-2,3.116651475E-1,3.434320510E-1
2.765815255E0,1.322034448E-1,-7.597211748E-2,3.020938635E-1,3.383935812E-1
2.768091195E0,1.178465188E-1,-8.075776696E-2,3.158525825E-1,3.466590151E-1
2.770377084E0,1.034895778E-1,-7.597211748E-2,3.206382394E-1,3.453849098E-1
2.772664865E0,1.226321608E-1,-7.118647546E-2,3.302095234E-1,3.593667911E-1
2.774948861E0,1.082752272E-1,-8.075776696E-2,3.397808075E-1,3.656450997E-1
2.777230111E0,1.274178028E-1,-9.032905847E-2,3.254238665E-1,3.609644417E-1
2.779510018E0,1.322034448E-1,-8.075776696E-2,3.254238665E-1,3.604167874E-1
2.781796151E0,1.178465188E-1,-7.597211748E-2,3.254238665E-1,3.543448285E-1
2.784080636E0,1.274178028E-1,-8.075776696E-2,3.349951804E-1,3.673947254E-1
2.786361885E0,1.322034448E-1,-9.511470050E-2,3.349951804E-1,3.724866816E-1
2.788641976E0,1.226321608E-1,-9.990034252E-2,3.541377485E-1,3.878559916E-1
2.790929452E0,1.130608693E-1,-7.597211748E-2,3.637090325E-1,3.883796894E-1
2.793212777E0,1.178465188E-1,-8.075776696E-2,3.637090325E-1,3.907606419E-1
2.795494943E0,1.226321608E-1,-7.118647546E-2,3.684946895E-1,3.948347722E-1
2.797771859E0,1.178465188E-1,-7.537391037E-2,3.780659735E-1,4.031164952E-1
2.800049447E0,1.178465188E-1,-7.537391037E-2,3.828516304E-1,4.076081443E-1
2.802345346E0,1.130608693E-1,-8.554340899E-2,3.637090325E-1,3.903648234E-1
2.804628243E0,1.082752272E-1,-7.058826834E-2,3.876372576E-1,4.086182472E-1
2.806911508E0,1.178465188E-1,-6.580262631E-2,4.019941986E-1,4.240484917E-1
2.809182992E0,1.178465188E-1,-6.580262631E-2,4.109672904E-1,4.325643321E-1
2.811477914E0,1.130608693E-1,-6.101697683E-2,4.019941986E-1,4.220250790E-1
2.813759896E0,1.226321608E-1,-7.537391037E-2,4.348955154E-1,4.580982237E-1
2.816045236E0,1.178465188E-1,-8.015955985E-2,4.348955154E-1,4.576543088E-1
2.818319894E0,1.130608693E-1,-8.494520187E-2,4.205385745E-1,4.436790958E-1
2.820605294E0,1.226321608E-1,-7.537391037E-2,4.444667995E-1,4.671944018E-1
2.822892221E0,1.178465188E-1,-7.058826834E-2,4.492524564E-1,4.697853501E-1
2.825178231E0,1.082752272E-1,-7.537391037E-2,4.731806815E-1,4.912277563E-1
2.827461007E0,1.130608693E-1,-7.537391037E-2,4.827519655E-1,5.015111631E-1
2.829737680E0,1.136590764E-1,-6.580262631E-2,5.060819983E-1,5.228454459E-1
2.832024728E0,1.184447184E-1,-6.999006122E-2,5.204389095E-1,5.383162811E-1
2.834307992E0,5.395814776E-1,-2.327020019E-1,9.816554785E-1,1.144091723E0
2.836590707E0,4.747958183E0,3.513859987E0,4.027120590E0,7.148987283E0
2.838870126E0,1.143470097E1,1.386521053E1,2.696711063E0,1.817329634E1
2.841158578E0,1.846421623E1,2.626721001E1,6.276971817E0,3.271534774E1
2.843446420E0,2.459522629E1,3.787957764E1,1.224945736E1,4.679569172E1
2.845716439E0,3.212483978E1,5.213242722E1,1.694537163E1,6.353692563E1
2.848001656E0,4.413800812E1,7.406803131E1,6.351747513E0,8.645566332E1
2.850283334E0,6.195077515E1,9.894561005E1,-6.531209469E0,1.169221493E2
2.852576547E0,7.941778564E1,1.174666519E2,-8.465208054E0,1.420466780E2
2.854857003E0,9.467262268E1,1.283898926E2,-3.459423304E0,1.595582577E2
2.857140084E0,1.068359451E2,1.335799255E2,2.679363251E0,1.710692686E2
2.859418953E0,1.155057373E2,1.334561005E2,9.166903496E0,1.767374839E2
2.861710457E0,1.234445267E2,1.297741394E2,1.272144127E1,1.795597769E2
2.863979074E0,1.278347549E2,1.218939743E2,2.141995049E1,1.779288617E2
2.866272226E0,1.297609711E2,1.114792175E2,3.330928802E1,1.742843488E2
2.868547982E0,1.292483215E2,9.882297516E1,4.843730927E1,1.697565373E2
2.870840768E0,1.288666534E2,8.690013885E1,6.104868317E1,1.669885931E2
2.873121041E0,1.269942780E2,7.434021759E1,6.851728058E1,1.623226180E2
2.875406381E0,1.222798157E2,5.907101440E1,7.274898529E1,1.540589268E2
2.877682076E0,1.161087265E2,4.340520477E1,7.534460449E1,1.450588074E2
2.879966683E0,1.094824066E2,2.972902679E1,7.719186401E1,1.372180610E2
2.882253975E0,1.031456146E2,1.903789520E1,8.008059692E1,1.319634846E2
2.884538338E0,9.752247620E1,1.106142044E1,8.288857269E1,1.284659639E2
2.886819162E0,9.180542755E1,4.402793884E0,8.515218353E1,1.252937169E2
2.889098642E0,8.652446747E1,-7.872386575E-1,8.516773987E1,1.214110668E2
2.891386361E0,8.178847504E1,-5.497509956E0,8.211508942E1,1.160278638E2
2.893670053E0,7.672705078E1,-8.967103004E0,7.369116211E1,1.067606511E2
2.895949593E0,7.151548767E1,-9.903892517E0,6.583731842E1,9.770928595E1
2.898221444E0,6.550351715E1,-1.052901745E1,5.639583969E1,8.707503490E1
2.900514474E0,5.879943085E1,-1.118704414E1,4.544867325E1,7.515387498E1
2.902802377E0,5.062554550E1,-1.143769264E1,3.468037415E1,6.242191139E1
2.905087716E0,4.216392899E1,-1.208973598E1,2.530350113E1,5.063818513E1
2.907368234E0,3.471686554E1,-1.257428265E1,1.769492340E1,4.094488553E1
2.909645883E0,2.743550682E1,-1.269930840E1,1.099501991E1,3.216939432E1
2.911934945E0,2.039402771E1,-1.308814144E1,5.695516109E0,2.489286477E1
2.914216928E0,1.436710548E1,-1.325324631E1,1.666002750E0,1.961728378E1
2.916501290E0,9.458230019E0,-1.331665611E1,-1.473978758E0,1.640012373E1
2.918779122E0,5.872584820E0,-1.286381435E1,-3.162713289E0,1.449026320E1
2.921067208E0,3.469592810E0,-1.209631634E1,-3.558127165E0,1.307743140E1
2.923349862E0,1.946561217E0,-1.099143124E1,-3.068196774E0,1.157646287E1
2.925634164E0,1.201795220E0,-9.622735977E0,-2.235494614E0,9.951823733E0
2.927902657E0,9.553344250E-1,-8.337192535E0,-1.516451359E0,8.527664860E0
2.930194711E0,1.037886858E0,-7.359724045E0,-7.118647099E-1,7.466558679E0
2.932481087E0,1.508674622E0,-6.435496330E0,1.692921966E-1,6.612138230E0
2.934768869E0,2.382055044E0,-5.522036552E0,1.016949654E0,6.099283607E0
2.937048959E0,3.312862873E0,-4.729413986E0,1.769492388E0,6.039331120E0
2.939324410E0,4.304089546E0,-4.100699902E0,2.275574446E0,6.365466641E0
2.941602914E0,5.447858810E0,-3.555136204E0,2.514856577E0,6.974429199E0
2.943898019E0,6.557530403E0,-3.183650494E0,2.526222467E0,7.714832170E0
2.946180307E0,7.661818027E0,-2.874378204E0,2.437089920E0,8.538437376E0
2.948464792E0,8.770293236E0,-2.604587555E0,2.243869543E0,9.420024963E0
2.950755258E0,9.758528709E0,-2.348555326E0,1.984248161E0,1.023141415E1
2.953031136E0,1.067557812E1,-2.088335991E0,1.733600020E0,1.101519334E1
2.955313851E0,1.148195934E1,-1.822134495E0,1.468594909E0,1.171803463E1
2.957588998E0,1.214895916E1,-1.609173179E0,1.232303619E0,1.231686726E1
2.959874154E0,1.269153118E1,-1.424327731E0,1.004985452E0,1.281068573E1
2.962163339E0,1.314796257E1,-1.248455167E0,8.249256015E-1,1.323284030E1
2.964444223E0,1.355115318E1,-1.101296663E0,6.831508875E-1,1.361298285E1
2.966718148E0,1.378624725E1,-9.822536707E-1,5.365904570E-1,1.383160746E1
2.969006662E0,1.395912933E1,-8.733802438E-1,3.702892959E-1,1.399132585E1
2.971295907E0,1.406501102E1,-7.872386575E-1,3.086741269E-1,1.409040665E1
2.973581795E0,1.408953762E1,-7.250252366E-1,2.997010350E-1,1.411136254E1
2.975861947E0,1.415713501E1,-6.717849374E-1,3.565305769E-1,1.417754847E1
2.978138253E0,1.409910965E1,-6.765705943E-1,4.181457460E-1,1.412152565E1
2.980424813E0,1.399861050E1,-6.532405615E-1,2.189432681E-1,1.401555405E1
2.982713998E0,1.400339603E1,-6.622136831E-1,3.661018610E-1,1.402382466E1
2.984995614E0,1.396511078E1,-6.717849374E-1,3.044866920E-1,1.398457458E1
2.987276010E0,1.389811230E1,-7.046862841E-1,3.750749528E-1,1.392101970E1
2.989552316E0,1.388315678E1,-7.004988194E-1,2.614158690E-1,1.390327583E1
2.991832650E0,1.389272785E1,-7.286145091E-1,4.325026870E-1,1.391854248E1
2.994126107E0,1.385922909E1,-7.483552694E-1,3.278166950E-1,1.388328961E1
2.996404488E0,1.387358570E1,-7.866404653E-1,3.942175210E-1,1.390146003E1
2.998689156E0,1.386880016E1,-7.818548083E-1,3.469592929E-1,1.389515368E1
3.000975167E0,1.387837124E1,-7.722834945E-1,3.846462369E-1,1.390516317E1
3.003257577E0,1.385384464E1,-8.153542876E-1,3.373879790E-1,1.388191790E1
3.005528939E0,1.386820221E1,-8.344969153E-1,3.230310678E-1,1.389704165E1
3.007813485E0,1.383948803E1,-8.392825127E-1,3.511467278E-1,1.386935932E1
3.010104501E0,1.384905910E1,-8.446664214E-1,2.943171859E-1,1.387791490E1
3.012395211E0,1.384427357E1,-8.440681696E-1,3.182454109E-1,1.387363117E1
3.014676522E0,1.384427357E1,-8.638089895E-1,2.799602449E-1,1.387402084E1
3.016957711E0,1.385384464E1,-8.727820516E-1,3.942175210E-1,1.388690633E1
3.019232613E0,1.382513142E1,-8.781659007E-1,3.086741269E-1,1.385643222E1
3.021514046E0,1.381555939E1,-8.871390224E-1,3.798605800E-1,1.384922348E1
3.023805062E0,1.380598831E1,-8.823533654E-1,3.230310678E-1,1.383792650E1
3.026093942E0,1.380598831E1,-8.823533654E-1,3.463610709E-1,1.383849077E1
3.028370247E0,1.379641724E1,-8.823533654E-1,3.272185028E-1,1.382847598E1
3.030652474E0,1.381555939E1,-8.871390224E-1,3.320041299E-1,1.384799349E1
3.032937996E0,1.380598831E1,-8.775677085E-1,3.278166950E-1,1.383773472E1
3.035223641E0,1.380060482E1,-8.967102766E-1,3.182454109E-1,1.383336773E1
3.037504953E0,1.380120277E1,-8.823533654E-1,3.415754437E-1,1.383359748E1
3.039784249E0,1.379163170E1,-8.775677085E-1,3.086741269E-1,1.382297036E1
3.042071176E0,1.376291752E1,-8.679963946E-1,3.272185028E-1,1.379414326E1
3.044355538E0,1.376770306E1,-8.536394835E-1,3.038884699E-1,1.379748876E1
3.046638314E0,1.376770306E1,-8.392825127E-1,3.182454109E-1,1.379693164E1
3.048916879E0,1.375813198E1,-8.249256015E-1,3.230310678E-1,1.378662565E1
3.051203805E0,1.376291752E1,-8.249256015E-1,3.367897868E-1,1.379173043E1
3.053487924E0,1.375813198E1,-8.153542876E-1,3.326023519E-1,1.378628386E1
3.055769845E0,1.376291752E1,-8.105686903E-1,3.278166950E-1,1.379066293E1
3.058047982E0,1.373420334E1,-7.818548083E-1,3.134597540E-1,1.376001073E1
3.060331735E0,1.375394440E1,-7.429714203E-1,3.230310678E-1,1.377778437E1
3.062622140E0,1.373001671E1,-7.429714203E-1,3.278166950E-1,1.375401138E1
3.064904366E0,1.372044468E1,-7.286145091E-1,3.326023519E-1,1.374380244E1
3.067186349E0,1.370608807E1,-7.046862841E-1,3.278166950E-1,1.372810608E1
3.069463632E0,1.372044468E1,-6.759724021E-1,2.991028428E-1,1.374034219E1
3.071753854E0,1.370130253E1,-6.520441771E-1,2.991028428E-1,1.372006979E1
3.074035043E0,1.369173145E1,-6.376872063E-1,2.991028428E-1,1.370983653E1
3.076318978E0,1.368275833E1,-6.089733839E-1,2.943171859E-1,1.369946520E1
3.078595956E0,1.367318726E1,-5.946164131E-1,2.757728100E-1,1.368888853E1
3.080885263E0,1.371147156E1,-5.288137794E-1,-3.290131316E-2,1.372170466E1
3.083168100E0,1.388854122E1,-3.690928817E-1,-8.638089895E-1,1.392027201E1
3.085451486E0,1.403211021E1,-1.483550072E-1,-1.832902193E0,1.415209019E1
3.087727425E0,1.400818157E1,5.443671346E-2,-2.739781857E0,1.427370025E1
3.090012765E0,1.428634739E1,4.917250574E-1,-4.814359188E0,1.508375184E1
3.092300424E0,1.445384502E1,1.071386337E0,-7.250252724E0,1.620579122E1
3.094585274E0,1.446820259E1,1.476969719E0,-8.969495773E0,1.708690084E1
3.096866341E0,1.439641762E1,1.787438512E0,-1.046560764E1,1.788800492E1
3.099146493E0,1.428515148E1,2.049452543E0,-1.221835041E1,1.890909557E1
3.101429269E0,1.410748386E1,2.331805706E0,-1.372822189E1,1.982227270E1
3.103715463E0,1.384367561E1,2.627917528E0,-1.534816265E1,2.083553219E1
3.105997872E0,1.357926846E1,2.905484915E0,-1.678744507E1,2.178661714E1
3.108277108E0,1.330529022E1,3.149552822E0,-1.836910057E1,2.289922022E1
3.110559945E0,1.306959724E1,3.367897987E0,-2.021217346E1,2.430409564E1
3.112848947E0,1.280937767E1,3.608974695E0,-2.230230331E1,2.597109139E1
3.115130868E0,1.265623760E1,4.006781578E0,-2.378824615E1,2.724179333E1
3.117411263E0,1.258505058E1,4.314857483E0,-2.473341179E1,2.808457142E1
3.119694162E0,1.262931824E1,4.649254322E0,-2.515095901E1,2.852518158E1
3.121981332E0,1.283330631E1,5.067399979E0,-2.480340195E1,2.838275958E1
3.124264901E0,1.314736366E1,5.397609711E0,-2.380499649E1,2.772481235E1
3.126549141E0,1.350987625E1,5.484947681E0,-2.215095711E1,2.651916869E1
3.128824533E0,1.374616814E1,5.245665550E0,-1.964328003E1,2.454246515E1
3.131113900E0,1.410210037E1,4.757529736E0,-1.666959953E1,2.234678663E1
3.133396309E0,1.439940834E1,4.092324734E0,-1.381077385E1,2.036731589E1
3.135680367E0,1.475354576E1,3.391826153E0,-1.126540947E1,1.887010990E1
3.137957162E0,1.518425465E1,2.732603550E0,-9.000003815E0,1.786137677E1
3.140241098E0,1.564846230E1,2.058425665E0,-7.029514790E0,1.727789242E1
3.142528695E0,1.613599968E1,1.401595831E0,-5.334199905E0,1.705252606E1
3.144814461E0,1.671446419E1,8.303094506E-1,-3.909274101E0,1.718560883E1
3.147094369E0,1.730309868E1,2.578266263E-1,-2.764906645E0,1.752450876E1
3.149373788E0,1.788575172E1,-4.067798555E-1,-1.782054663E0,1.797891274E1
3.151660226E0,1.856411552E1,-9.996016622E-1,-8.177471161E-1,1.860898436E1
3.153945260E0,1.919582176E1,-1.429711580E0,3.589233849E-3,1.924899117E1
3.156228158E0,1.980419731E1,-1.740778446E0,6.448656917E-1,1.989101286E1
3.158506478E0,2.037428665E1,-1.898704767E0,1.110867858E0,2.049269782E1
3.160790170E0,2.094018936E1,-1.846660852E0,1.258624673E0,2.105910309E1
3.163065439E0,2.147857475E1,-1.594218135E0,1.074377418E0,2.156443813E1
3.165359201E0,2.196371841E1,-1.228116274E0,6.197410822E-1,2.200675522E1
3.167637582E0,2.244527435E1,-7.657032609E-1,1.734796353E-2,2.245833794E1
3.169923714E0,2.281556320E1,-2.614158690E-1,-7.369893789E-1,2.282896002E1
3.172210397E0,2.310030937E1,2.817548811E-1,-1.576271892E0,2.315574037E1
3.174494210E0,2.329891396E1,8.823533654E-1,-2.444866419E0,2.344344921E1
3.176776010E0,2.341616249E1,1.507478237E0,-3.312862873E0,2.369734620E1
3.179053292E0,2.345265388E1,2.204986095E0,-4.114458561E0,2.391271016E1
3.181342171E0,2.339283180E1,2.907877684E0,-4.744967461E0,2.404568669E1
3.183624581E0,2.326182556E1,3.597608805E0,-5.166702271E0,2.409875785E1
3.185908273E0,2.298186493E1,4.269393921E0,-5.450850010E0,2.400220002E1
3.188184396E0,2.254338074E1,4.798207760E0,-5.559723377E0,2.370943561E1
3.190470040E0,2.190329933E1,5.173880577E0,-5.531607628E0,2.317589793E1
3.192757943E0,2.111307144E1,5.339583874E0,-5.403591633E0,2.243817604E1
3.195042061E0,2.015474510E1,5.352146149E0,-5.237888813E0,2.150103946E1
3.197322946E0,1.913300896E1,5.236093998E0,-5.001597404E0,2.045738714E1
3.199602365E0,1.802034760E1,5.018945694E0,-4.718048096E0,1.929203777E1
3.201889291E0,1.687837219E1,4.754538536E0,-4.415356159E0,1.808260088E1
3.204173471E0,1.575554085E1,4.465605259E0,-4.089334011E0,1.687902101E1
3.206455453E0,1.468953800E1,4.162314892E0,-3.767499208E0,1.572582088E1
3.208735482E0,1.365284824E1,3.839882135E0,-3.436691523E0,1.459300547E1
3.211022775E0,1.267896938E1,3.555734396E0,-3.153141975E0,1.354037725E1
3.213305795E0,1.177149105E1,3.251247883E0,-2.931207657E0,1.255908407E1
3.215588204E0,1.090708351E1,2.990430117E0,-2.718844652E0,1.163182098E1
3.217867074E0,1.010548782E1,2.739183664E0,-2.510669231E0,1.076696203E1
3.220148629E0,9.390034676E0,2.515454769E0,-2.392822742E0,1.001128686E1
3.222433785E0,8.732605934E0,2.282154560E0,-2.327618122E0,9.321182434E0
3.224717843E0,8.098507881E0,2.101496458E0,-2.318645239E0,8.682063868E0
3.227004952E0,7.570292473E0,1.911267042E0,-2.196012974E0,8.110779421E0
3.229281015E0,7.046862602E0,1.748555183E0,-2.320439816E0,7.622346010E0
3.231560738E0,6.609574318E0,1.581655741E0,-2.330609322E0,7.184695356E0
3.233852609E0,6.220740795E0,1.466800332E0,-2.497508526E0,6.861972609E0
3.236136849E0,5.855835438E0,1.342971683E0,-2.569293261E0,6.534190805E0
3.238417061E0,5.538187981E0,1.228116274E0,-2.636292458E0,6.255384370E0
3.240703012E0,5.260022163E0,1.141376376E0,-2.793620348E0,6.064230194E0
3.242981514E0,5.029115200E0,1.064806104E0,-2.931207657E0,5.917583127E0
3.245256234E0,4.817948341E0,1.007378340E0,-3.069393158E0,5.800742340E0
3.247551705E0,4.625326157E0,9.684949517E-1,-3.193221807E0,5.703357786E0
3.249830941E0,4.466801643E0,9.254241586E-1,-3.364308596E0,5.668094841E0
3.252122445E0,4.356133461E0,8.961120844E-1,-3.512065411E0,5.666879128E0
3.254405526E0,4.265206337E0,8.715856671E-1,-3.673580885E0,5.696213057E0
3.256683908E0,4.192823410E0,8.566305041E-1,-3.806980848E0,5.727712209E0
3.258963205E0,4.144967079E0,8.518448472E-1,-3.892524242E0,5.749620571E0
3.261250497E0,4.101297855E0,8.512466550E-1,-3.996612072E0,5.789488148E0
3.263540170E0,4.120440483E0,8.410771489E-1,-4.101297855E0,5.874187999E0
3.265817514E0,4.125226021E0,8.602197170E-1,-4.191627026E0,5.943669305E0
3.268094613E0,4.158725739E0,8.213363886E-1,-4.238885403E0,5.994809646E0
3.270376412E0,4.220939159E0,8.213363886E-1,-4.286741734E0,6.071826376E0
3.272666573E0,4.278367043E0,8.063812256E-1,-4.343571186E0,6.149901290E0
3.274950020E0,4.359723091E0,7.674978375E-1,-4.362713814E0,6.215264289E0
3.277233102E0,4.455435753E0,7.483552694E-1,-4.395615101E0,6.303362236E0
3.279510568E0,4.570291042E0,7.094719410E-1,-4.429114819E0,6.403746460E0
3.281799447E0,4.703691006E0,6.556333899E-1,-4.485944271E0,6.532860034E0
3.284082406E0,4.837689400E0,5.976074338E-1,-4.581058979E0,6.689280585E0
3.286365487E0,4.981258392E0,5.341976285E-1,-4.689932346E0,6.862489905E0
3.288642953E0,5.143970490E0,4.851447940E-1,-4.808975220E0,7.058472960E0
3.290932504E0,5.306084156E0,4.408775866E-1,-5.027320385E0,7.322762619E0
3.293213937E0,5.502295494E0,4.247260094E-1,-5.274379253E0,7.633788338E0
3.295497750E0,5.679364681E0,3.804588020E-1,-5.483152866E0,7.903473758E0
3.297771371E0,5.866004944E0,3.888336718E-1,-5.720640659E0,8.202861402E0
3.300052865E0,6.067001820E0,3.870390654E-1,-5.981458187E0,8.528549253E0
3.302347604E0,6.263213158E0,3.565305769E-1,-6.238088608E0,8.846960076E0
3.304632088E0,6.435496330E0,3.690928817E-1,-6.555736065E0,9.193993579E0
3.306915108E0,6.641279221E0,3.194418252E-1,-6.836294174E0,9.536432813E0
3.309195382E0,6.793821812E0,3.224328458E-1,-7.211369038E0,9.912810961E0
3.311478830E0,7.000202656E0,3.493520916E-1,-7.476972580E0,1.024841466E1
3.313763009E0,7.177271366E0,3.577269912E-1,-7.676175117E0,1.051498252E1
3.316043831E0,7.354340553E0,3.565305769E-1,-7.908876896E0,1.080572870E1
3.318323312E0,7.526623726E0,3.936193287E-1,-8.188837051E0,1.112933301E1
3.320607308E0,7.694719315E0,4.492524564E-1,-8.435895920E0,1.142693629E1
3.322895639E0,7.832904816E0,4.576273263E-1,-8.706285477E0,1.172020595E1
3.325178658E0,7.986643791E0,4.947160780E-1,-8.953344345E0,1.200806387E1
3.327461740E0,8.120641708E0,5.509474277E-1,-9.124430656E0,1.222716646E1
3.329738595E0,8.231309891E0,6.179464459E-1,-9.180662155E0,1.234588506E1
3.332027902E0,8.307880402E0,6.699903607E-1,-9.314062119E0,1.249886063E1
3.334309579E0,8.337192535E0,6.885347366E-1,-9.418149948E0,1.259699996E1
3.336594430E0,8.341380119E0,7.118647099E-1,-9.613164902E0,1.274748262E1
3.338872445E0,8.331808090E0,7.447660565E-1,-9.712467194E0,1.281817934E1
3.341156319E0,8.303094864E0,7.441678643E-1,-9.869196892E0,1.291883189E1
3.343422921E0,8.216953278E0,7.639086246E-1,-9.865009308E0,1.286158179E1
3.345716378E0,8.092526436E0,7.878368497E-1,-9.931410789E0,1.283520905E1
3.348002511E0,7.982456207E0,8.416753411E-1,-9.789037704E0,1.265911860E1
3.350292184E0,7.867600918E0,9.044869542E-1,-9.760323524E0,1.256905550E1
3.352577279E0,7.690532207E0,9.529415965E-1,-9.684351921E0,1.240318731E1
3.354860420E0,7.475177765E0,9.882357717E-1,-9.499505997E0,1.212829364E1
3.357142220E0,7.236494064E0,1.075573802E0,-9.304491043E0,1.183626879E1
3.359418770E0,6.911069870E0,1.144367456E0,-9.190832138E0,1.155611782E1
3.361696725E0,6.556932449E0,1.198804140E0,-8.938986778E0,1.115060443E1
3.363989755E0,6.179464340E0,1.331605792E0,-8.511868477E0,1.060239871E1
3.366261727E0,5.729015827E0,1.429113269E0,-8.317451477E0,1.020019540E1
3.368552986E0,5.212764263E0,1.584646821E0,-8.155936241E0,9.808328746E0
3.370831185E0,4.734199524E0,1.759921074E0,-7.923233986E0,9.396148366E0
3.373113046E0,4.174279213E0,1.962712765E0,-7.980661869E0,9.217798664E0
3.375395089E0,3.571287870E0,2.155334949E0,-8.114061356E0,9.123461924E0
3.377677621E0,2.958725214E0,2.362912416E0,-8.180462837E0,9.014287671E0
3.379961007E0,2.210968018E0,2.465205431E0,-8.399405479E0,9.028600656E0
3.382244638E0,1.079162955E0,2.490928411E0,-8.623732567E0,9.040911482E0
3.384527109E0,7.298108935E-2,2.579462767E0,-8.633902550E0,9.011283352E0
3.386809030E0,-8.662018180E-1,2.634497643E0,-8.668000221E0,9.100830251E0
3.389097054E0,-1.734198213E0,2.684148788E0,-8.801998138E0,9.364148087E0
3.391393075E0,-2.533999205E0,2.716451883E0,-8.432307243E0,9.214340359E0
3.393675607E0,-3.344567776E0,2.745165825E0,-8.955139160E0,9.945681796E0
3.395953378E0,-4.044468403E0,2.742773056E0,-8.808578491E0,1.007331047E1
3.398218209E0,-4.682155609E0,2.725425005E0,-8.761918068E0,1.030154022E1
3.400516365E0,-5.185844898E0,2.664407969E0,-8.643473625E0,1.042601043E1
3.402803353E0,-5.598008633E0,2.632104874E0,-8.653642654E0,1.063725566E1
3.405091866E0,-5.929414749E0,2.574677229E0,-8.743971825E0,1.087400411E1
3.407369516E0,-6.131608009E0,2.483749866E0,-8.834898949E0,1.103725825E1
3.409649545E0,-6.266204357E0,2.406581402E0,-9.015557289E0,1.123998329E1
3.411936837E0,-6.281159401E0,2.309672117E0,-9.244071960E0,1.141229228E1
3.414219857E0,-6.215356827E0,2.197807550E0,-9.495916367E0,1.155999335E1
3.416501962E0,-6.072385788E0,2.095514536E0,-9.742975235E0,1.167007355E1
3.418781076E0,-5.857031822E0,1.983649969E0,-9.999007225E0,1.175669318E1
3.421068307E0,-5.647061348E0,1.838286042E0,-1.023709393E1,1.183497738E1
3.423352853E0,-5.404190063E0,1.640279889E0,-1.035553837E1,1.179546367E1
3.425635446E0,-5.132006168E0,1.427916884E0,-1.040818024E1,1.169216190E1
3.427913216E0,-4.840680122E0,1.163509965E0,-1.031785107E1,1.145617694E1
3.430196847E0,-4.511068821E0,8.997012973E-1,-1.010907745E1,1.110642388E1
3.432484688E0,-4.123431683E0,6.843472719E-1,-9.824331284E0,1.067653995E1
3.434768075E0,-3.668197155E0,5.401797295E-1,-9.472586632E0,1.017238232E1
3.437050485E0,-3.203391314E0,4.540380836E-1,-9.139386177E0,9.695166125E0
3.439319894E0,-2.742773056E0,4.301098585E-1,-8.882756233E0,9.306511528E0
3.441605600E0,-2.310868502E0,4.492524564E-1,-8.611170769E0,8.927160971E0
3.443898995E0,-1.855035782E0,5.018945336E-1,-8.387441635E0,8.604779664E0
3.446185128E0,-1.442273855E0,5.736792088E-1,-8.292326927E0,8.436346815E0
3.448469857E0,-1.096511006E0,6.598208547E-1,-8.163114548E0,8.262816655E0
3.450769418E0,-7.316055298E-1,7.501499057E-1,-8.096115112E0,8.163642045E0
3.453031869E0,-4.336991012E-1,8.356932998E-1,-8.057829857E0,8.112650628E0
3.455315805E0,-1.794617027E-1,9.218349457E-1,-8.053044319E0,8.107620426E0
3.457587472E0,6.101697683E-2,1.002592683E0,-8.042875290E0,8.105353668E0
3.459874642E0,2.482553422E-1,1.098305583E0,-8.090133667E0,8.168119038E0
3.462153634E0,4.115654826E-1,1.150349498E0,-8.108677864E0,8.200204072E0
3.464449471E0,5.461617708E-1,1.212562919E0,-8.142177582E0,8.250070138E0
3.466730600E0,6.323033571E-1,1.250249863E0,-8.208578110E0,8.327285683E0
3.469012520E0,7.232306600E-1,1.278365493E0,-8.293522835E0,8.422576918E0
3.471296823E0,7.471588850E-1,1.297508121E0,-8.407780647E0,8.540055570E0
3.473581124E0,7.854440212E-1,1.287338614E0,-8.511868477E0,8.644424098E0
3.475862924E0,7.854440212E-1,1.286142230E0,-8.669196129E0,8.799207104E0
3.478141366E0,7.657032609E-1,1.247258782E0,-8.830712318E0,8.951169533E0
3.480424447E0,7.172485590E-1,1.213161111E0,-8.997013092E0,9.106725534E0
3.482712045E0,6.837490797E-1,1.179063320E0,-9.144171715E0,9.245192235E0
3.484994821E0,6.113662124E-1,1.111466169E0,-9.296713829E0,9.382857438E0
3.487268319E0,5.772684813E-1,1.048654556E0,-9.415159225E0,9.490950349E0
3.489557443E0,5.383850932E-1,9.906286001E-1,-9.467801094E0,9.534697745E0
3.491845772E0,5.138586760E-1,9.188438654E-1,-9.510871887E0,9.568960698E0
3.494129525E0,5.186443329E-1,8.853443861E-1,-9.486943245E0,9.542270105E0
3.496407113E0,5.521438122E-1,8.327022791E-1,-9.472586632E0,9.525132722E0
3.498686593E0,5.760720372E-1,8.039883971E-1,-9.410971642E0,9.462803156E0
3.500978768E0,5.760720372E-1,7.896314859E-1,-9.391828537E0,9.442553688E0
3.503262887E0,5.904290080E-1,7.896314859E-1,-9.315856934E0,9.367887419E0
3.505545174E0,5.808576941E-1,8.189435601E-1,-9.239884377E0,9.294273910E0
3.507820687E0,5.330012441E-1,8.482556343E-1,-9.187840462E0,9.242296268E0
3.510106758E0,4.809573591E-1,8.961120844E-1,-9.225527763E0,9.281416883E0
3.512393136E0,4.618147612E-1,9.343972206E-1,-9.183054924E0,9.242016489E0
3.514678048E0,4.043870270E-1,9.876375198E-1,-9.196813583E0,9.258527789E0
3.516956918E0,3.373879790E-1,1.040279627E0,-9.230313301E0,9.294874716E0
3.519229073E0,2.901297510E-1,1.098305583E0,-9.239884377E0,9.309452923E0
3.521514779E0,2.231307179E-1,1.169492126E0,-9.387042999E0,9.462244735E0
3.523810555E0,1.752742529E-1,1.265803218E0,-9.391828537E0,9.478366005E0
3.526097543E0,1.232303679E-1,1.380658627E0,-9.515059471E0,9.615495864E0
3.528372629E0,7.118647546E-2,1.495514154E0,-9.586245537E0,9.702460182E0
3.530652963E0,3.290131316E-2,1.596012712E0,-9.690333366E0,9.820941901E0
3.532940865E0,1.435693540E-2,1.725225091E0,-9.771091461E0,9.922239469E0
3.535224801E0,-1.375873014E-2,1.844866276E0,-9.870393753E0,1.004133426E1
3.537508187E0,-2.273181453E-2,1.969292998E0,-9.936794281E0,1.013007958E1
3.539786508E0,-4.606183618E-2,2.079362869E0,-1.003190899E1,1.024524620E1
3.542074655E0,-2.691925503E-2,2.179861546E0,-1.008873844E1,1.032158730E1
3.544356576E0,-2.392822644E-3,2.276172638E0,-1.011685371E1,1.036974911E1
3.546638620E0,1.256231871E-2,2.376671076E0,-1.018325520E1,1.045693117E1
3.548911447E0,4.666004330E-2,2.467598438E0,-1.020179939E1,1.049609118E1
3.551206857E0,8.494520187E-2,2.534597397E0,-1.024008465E1,1.054944232E1
3.553488900E0,1.238285750E-1,2.587239504E0,-1.028734303E1,1.060841969E1
3.555774911E0,1.860419661E-1,2.606382132E0,-1.023470020E1,1.056299804E1
3.558050118E0,2.291127741E-1,2.620140791E0,-1.031067276E1,1.064084598E1
3.560332223E0,2.727817893E-1,2.615355253E0,-1.032502937E1,1.065461048E1
3.562612863E0,3.104687333E-1,2.590828657E0,-1.034895802E1,1.067284948E1
3.564906258E0,3.535395563E-1,2.538186550E0,-1.036331463E1,1.067547054E1
3.567187387E0,3.583251834E-1,2.499303341E0,-1.037767220E1,1.068040235E1
3.569469003E0,3.672982752E-1,2.422134638E0,-1.048235798E1,1.076482573E1
3.571753793E0,3.810569942E-1,2.326421738E0,-1.044407272E1,1.070682481E1
3.574038278E0,3.661018610E-1,2.258824587E0,-1.053440189E1,1.078007154E1
3.576321176E0,3.655036688E-1,2.143969059E0,-1.052542877E1,1.074778336E1
3.578599435E0,3.457628787E-1,2.042872429E0,-1.056849957E1,1.076968258E1
3.580886300E0,3.020938635E-1,1.942373753E0,-1.052124119E1,1.070329821E1
3.583171151E0,2.925225794E-1,1.865205288E0,-1.056371403E1,1.073110499E1
3.585452462E0,2.488535494E-1,1.793420553E0,-1.052124119E1,1.067589816E1
3.587727670E0,2.195414752E-1,1.736590981E0,-1.046441174E1,1.060980017E1
3.590013620E0,1.525424421E-1,1.669592023E0,-1.039322472E1,1.052757934E1
3.592303109E0,8.973085135E-2,1.593021631E0,-1.030349445E1,1.042630172E1
3.594587716E0,3.230310604E-2,1.560120344E0,-1.025085258E1,1.036894390E1
3.596867379E0,-5.383851007E-2,1.517647743E0,-1.011326504E1,1.022664573E1
3.599138802E0,-1.118644550E-1,1.445863128E0,-1.004207802E1,1.014624880E1
3.601431221E0,-1.842473447E-1,1.389033556E0,-9.923633575E0,1.002206888E1
3.603716195E0,-2.560320199E-1,1.346560955E0,-9.819545746E0,9.914749490E0
3.606003183E0,-3.278166950E-1,1.294517040E0,-9.738788605E0,9.829915648E0
3.608278329E0,-4.001995921E-1,1.241874933E0,-9.653244972E0,9.741024153E0
3.610563485E0,-4.432703853E-1,1.223330617E0,-9.558728218E0,9.646880925E0
3.612851144E0,-4.863412082E-1,1.190429211E0,-9.482755661E0,9.569550899E0
3.615134042E0,-5.156532526E-1,1.152144074E0,-9.430113792E0,9.514219904E0
3.617411935E0,-5.539384484E-1,1.118644595E0,-9.363713264E0,9.446551732E0
3.619695809E0,-5.730810165E-1,1.104885817E0,-9.316454887E0,9.399230085E0
3.621982430E0,-5.826523304E-1,1.095314622E0,-9.259625435E0,9.342369135E0
3.624265145E0,-6.065805554E-1,1.071386337E0,-9.212367058E0,9.294273262E0
3.626536813E0,-6.065805554E-1,1.066600680E0,-9.183652878E0,9.265260771E0
3.628828256E0,-6.209374666E-1,1.043270707E0,-9.150154114E0,9.230346549E0
3.631116707E0,-6.023930907E-1,1.009172916E0,-9.136395454E0,9.211678963E0
3.633405831E0,-6.023930907E-1,1.004985452E0,-9.122037888E0,9.196980397E0
3.635680978E0,-5.736792088E-1,9.900303483E-1,-9.145966530E0,9.217264870E0
3.637958810E0,-5.353940725E-1,9.900303483E-1,-9.164510727E0,9.233366871E0
3.640241341E0,-5.012963414E-1,1.009172916E0,-9.207581520E0,9.276275408E0
3.642531564E0,-4.725824594E-1,1.027717352E0,-9.250054359E0,9.318961465E0
3.644814522E0,-4.295116663E-1,1.037288666E0,-9.326025963E0,9.393359799E0
3.647097848E0,-3.864408433E-1,1.070189953E0,-9.387641907E0,9.456345152E0
3.649376595E0,-3.672982752E-1,1.113260746E0,-9.468399048E0,9.540693792E0
3.651666085E0,-3.427718580E-1,1.179661512E0,-9.549157143E0,9.627850018E0
3.653945931E0,-2.901297510E-1,1.232303619E0,-9.634101868E0,9.716926792E0
3.656230783E0,-2.847459018E-1,1.275374413E0,-9.681958199E0,9.769747933E0
3.658506844E0,-2.799602449E-1,1.332802176E0,-9.729216576E0,9.824072198E0
3.660793404E0,-2.560320199E-1,1.360917926E0,-9.781260490E0,9.878800878E0
3.663066537E0,-2.410768867E-1,1.403988719E0,-9.814760208E0,9.917601541E0
3.665362924E0,-2.075773627E-1,1.414158225E0,-9.733404160E0,9.837788795E0
3.667639779E0,-2.267199457E-1,1.405185103E0,-9.605388641E0,9.710274870E0
3.669926888E0,-2.410768867E-1,1.390828133E0,-9.524630547E0,9.628660759E0
3.672211007E0,-2.506481707E-1,1.357926846E0,-9.401400566E0,9.502269330E0
3.674495858E0,-2.841476798E-1,1.343569875E0,-9.344570160E0,9.444941047E0
3.676776986E0,-2.937189937E-1,1.387238979E0,-9.334999084E0,9.442081907E0
3.679056466E0,-3.128615618E-1,1.406381488E0,-9.348757744E0,9.459125890E0
3.681343331E0,-2.883351147E-1,1.444666624E0,-9.391828537E0,9.506663035E0
3.683627572E0,-2.787638307E-1,1.492523074E0,-9.400801659E0,9.522626015E0
3.685910470E0,-2.739782035E-1,1.530808330E0,-9.391230583E0,9.519120236E0
3.688187569E0,-2.494517565E-1,1.540379524E0,-9.348757744E0,9.478094039E0
3.690470895E0,-2.159522474E-1,1.549950838E0,-9.305686951E0,9.436354836E0
3.692759836E0,-2.111666054E-1,1.550549030E0,-9.277571678E0,9.408619977E0
3.695043038E0,-1.920240223E-1,1.521835208E0,-9.258428574E0,9.384633998E0
3.697325691E0,-1.680957973E-1,1.526620865E0,-9.224929810E0,9.351906621E0
3.699601876E0,-1.585244983E-1,1.526620865E0,-9.206384659E0,9.333446296E0
3.701892831E0,-1.441675574E-1,1.526620865E0,-9.234500885E0,9.360948784E0
3.704175912E0,-1.106680483E-1,1.516451359E0,-9.248857498E0,9.373005770E0
3.706458932E0,-9.152546525E-2,1.526022673E0,-9.244071960E0,9.369631184E0
3.708735665E0,-6.759724021E-2,1.540379524E0,-9.268000603E0,9.395380441E0
3.711024484E0,-3.409772366E-2,1.535593987E0,-9.291330338E0,9.417432293E0
3.713307260E0,-5.383851007E-3,1.545165181E0,-9.296115875E0,9.423658249E0
3.715591195E0,1.914258115E-2,1.611566067E0,-9.362516403E0,9.500222367E0
3.717867074E0,6.281159073E-2,1.659422517E0,-9.386445045E0,9.532207456E0
3.720151681E0,6.699903309E-2,1.654636860E0,-9.443274498E0,9.587374263E0
3.722434823E0,7.657032460E-2,1.668993831E0,-9.485747337E0,9.631760274E0
3.724714913E0,1.202393398E-1,1.692323804E0,-9.490532875E0,9.640987066E0
3.726995004E0,1.680957973E-1,1.754537225E0,-9.542576790E0,9.703990358E0
3.729283821E0,1.830509305E-1,1.821536183E0,-9.595218658E0,9.768301941E0
3.731562142E0,2.021935135E-1,1.883749604E0,-9.632905960E0,9.817447327E0
3.733858468E0,2.171486616E-1,1.902892232E0,-9.647262573E0,9.835539006E0
