"Time (s)","Linear Acceleration x (m/s^2)","Linear Acceleration y (m/s^2)","Linear Acceleration z (m/s^2)","Absolute acceleration (m/s^2)"
1.146898000E-2,0.000000000E0,0.000000000E0,0.000000000E0,0.000000000E0
1.646898000E-2,-2.602207661E-2,5.135154724E-2,2.102756500E-2,6.128856635E-2
2.146898000E-2,-3.046266437E-1,2.155716419E-1,1.862668991E-1,4.170897775E-1
2.646898000E-2,-2.934812903E-1,3.512043953E-1,4.497718811E-1,6.416934939E-1
3.146898000E-2,-2.671257854E-1,4.106531143E-1,5.687532425E-1,7.506479976E-1
3.646898000E-2,-2.825320959E-1,4.374110699E-1,6.361112595E-1,8.220646956E-1
4.146898000E-2,-3.168435693E-1,4.036602974E-1,6.055345535E-1,7.937276476E-1
4.646898000E-2,-3.595749140E-1,3.334703445E-1,5.069360733E-1,7.053231684E-1
5.146898000E-2,-3.715302944E-1,2.381486893E-1,3.713283539E-1,5.767445745E-1
5.646898000E-2,-3.177471757E-1,1.517953873E-1,2.795705795E-1,4.496274193E-1
6.146898000E-2,-2.443214655E-1,7.292580605E-2,2.120494843E-1,3.316264999E-1
6.646898000E-2,-1.471483111E-1,-7.952928543E-3,1.865139008E-1,2.377042484E-1
7.146898000E-2,-3.542554379E-2,-6.705665588E-2,1.838922501E-1,1.989168768E-1
7.646898000E-2,4.253906012E-2,-1.220881939E-1,1.535959244E-1,2.007655516E-1
8.146898000E-2,1.138800681E-1,-1.973614693E-1,1.216793060E-1,2.583139039E-1
8.646898000E-2,2.034164369E-1,-2.595443726E-1,7.227611542E-2,3.375875664E-1
9.146898000E-2,3.010052741E-1,-2.973854542E-1,2.766990662E-2,4.240376246E-1
9.646898000E-2,3.958837986E-1,-3.224108219E-1,2.134990692E-2,5.110073763E-1
1.014689800E-1,4.564043880E-1,-3.253316879E-1,7.046985626E-2,5.648997019E-1
1.064689800E-1,5.211774111E-1,-3.002307415E-1,1.623878479E-1,6.230041774E-1
1.114689800E-1,5.838815570E-1,-2.539303303E-1,2.378911972E-1,6.796988355E-1
1.164689800E-1,6.342335939E-1,-1.924083233E-1,2.591018677E-1,7.116227880E-1
1.214689800E-1,6.510690451E-1,-1.411092281E-1,2.269439697E-1,7.037799948E-1
1.264689800E-1,6.209238172E-1,-9.499788284E-2,2.053489685E-1,6.608624542E-1
1.314689800E-1,5.953952670E-1,-7.628989220E-2,1.995582581E-1,6.325655460E-1
1.364689800E-1,5.545885563E-1,-1.015305519E-1,1.786003113E-1,5.914177804E-1
1.414689800E-1,4.755240381E-1,-1.469042301E-1,1.429224014E-1,5.178134572E-1
1.464689800E-1,3.856387138E-1,-1.670601368E-1,9.671783447E-2,4.312547350E-1
1.514689800E-1,3.318142891E-1,-1.797809601E-1,1.083030701E-1,3.926212820E-1
1.564689800E-1,3.337169588E-1,-1.690049171E-1,1.545104980E-1,4.047260365E-1
1.614689800E-1,3.827059865E-1,-1.773936749E-1,2.551431656E-1,4.929811588E-1
1.664689800E-1,4.364661276E-1,-2.020893097E-1,4.219131470E-1,6.398073720E-1
1.714689800E-1,4.618297219E-1,-2.517442703E-1,6.195831299E-1,8.127392722E-1
1.764689800E-1,4.227786064E-1,-3.170638084E-1,8.601255417E-1,1.009498468E0
1.814689800E-1,3.463177979E-1,-3.623075485E-1,1.090764999E0,1.200404540E0
1.864689800E-1,3.124280274E-1,-3.952951431E-1,1.297489166E0,1.391886367E0
1.914689800E-1,3.010323346E-1,-4.065992832E-1,1.452120781E0,1.537725010E0
1.964689800E-1,2.969030738E-1,-4.192214012E-1,1.491352081E0,1.577348740E0
2.014689800E-1,3.040677905E-1,-4.144412279E-1,1.445725441E0,1.534386132E0
2.064689800E-1,3.344756663E-1,-4.074236155E-1,1.351475716E0,1.450639371E0
2.114689800E-1,3.779480457E-1,-3.910766840E-1,1.177259445E0,1.296813595E0
2.164689800E-1,4.167849422E-1,-3.455057144E-1,9.757070541E-1,1.115835177E0
2.214689800E-1,4.099175930E-1,-2.681144476E-1,7.477531433E-1,8.938973953E-1
2.264689800E-1,3.960812092E-1,-1.798000336E-1,4.535293579E-1,6.284085095E-1
2.314689800E-1,3.737604022E-1,-9.687089920E-2,1.228828430E-1,4.051925499E-1
2.364689800E-1,3.273151517E-1,-2.795970440E-2,-2.540893555E-1,4.153051338E-1
2.414689800E-1,2.994398475E-1,3.178405762E-2,-6.576547623E-1,7.233147551E-1
2.464689800E-1,3.066614270E-1,6.181967258E-2,-1.088789940E0,1.132839987E0
2.514689800E-1,3.357594013E-1,7.063269615E-2,-1.499594688E0,1.538345729E0
2.564689800E-1,3.738750815E-1,5.301320553E-2,-1.843438625E0,1.881717020E0
2.614689800E-1,4.064292908E-1,1.240670681E-2,-2.097534657E0,2.136583799E0
2.664689800E-1,4.326465130E-1,-2.305626869E-2,-2.257116795E0,2.298323481E0
2.714689800E-1,4.476974010E-1,-6.845247746E-2,-2.294217587E0,2.338493754E0
2.764689800E-1,4.721550941E-1,-1.201189756E-1,-2.238554478E0,2.290957256E0
2.814689800E-1,5.102312565E-1,-1.700525284E-1,-2.065032005E0,2.133919160E0
2.864689800E-1,5.354743004E-1,-2.419946194E-1,-1.790606499E0,1.884559831E0
2.914689800E-1,5.483803749E-1,-3.379353881E-1,-1.365156174E0,1.509494200E0
2.964689800E-1,5.265278816E-1,-4.454755783E-1,-8.752889633E-1,1.114365681E0
3.014689800E-1,4.332889318E-1,-5.424607992E-1,-3.921003342E-1,7.973366223E-1
3.064689800E-1,2.983307838E-1,-6.178075075E-1,3.359127045E-2,6.868884526E-1
3.114689800E-1,1.720844507E-1,-6.881594062E-1,3.655891418E-1,7.980174479E-1
3.164689800E-1,6.644845009E-2,-7.497082353E-1,5.837030411E-1,9.524636868E-1
3.214689800E-1,-3.424036503E-2,-7.805573940E-1,6.945314407E-1,1.045378482E0
3.264689800E-1,-1.131864786E-1,-7.543315291E-1,7.267570496E-1,1.053566820E0
3.314689800E-1,-1.542410851E-1,-6.549049616E-1,8.108196259E-1,1.053621985E0
3.364689800E-1,-1.841348410E-1,-4.877225757E-1,1.003119469E0,1.130498836E0
3.414689800E-1,-2.237740755E-1,-2.920558453E-1,1.225115776E0,1.279171653E0
3.464689800E-1,-1.881259680E-1,-6.841510534E-2,1.419538498E0,1.433583466E0
3.514689800E-1,-9.221816063E-2,1.386532485E-1,1.524395943E0,1.533464021E0
3.564689800E-1,7.546448708E-2,3.051823080E-1,1.491645813E0,1.524414104E0
3.614689800E-1,3.509657383E-1,4.067843556E-1,1.405224800E0,1.504429194E0
3.664689800E-1,6.732513905E-1,4.225130677E-1,1.331347466E0,1.550571121E0
3.714689800E-1,9.620534182E-1,2.929585278E-1,1.377727509E0,1.705726991E0
3.764689800E-1,1.171136737E0,1.701144874E-2,1.634071350E0,2.010482485E0
3.814689800E-1,1.181844831E0,-3.301799595E-1,1.812645912E0,2.188940660E0
3.864689800E-1,1.162709594E0,-6.848400831E-1,1.727334023E0,2.191935757E0
3.914689800E-1,1.253608704E0,-1.076880932E0,1.386781693E0,2.157399079E0
3.964689800E-1,1.306064248E0,-1.438137889E0,8.499822617E-1,2.120498586E0
4.014689800E-1,1.278284788E0,-1.721350789E0,2.179107666E-1,2.155120795E0
4.064689800E-1,1.189955711E0,-1.908636212E0,-3.702163696E-1,2.279461986E0
4.114689800E-1,1.129611015E0,-1.955918193E0,-8.273057938E-1,2.405425513E0
4.164689800E-1,1.071774960E0,-1.777795792E0,-1.101873398E0,2.350188168E0
4.214689800E-1,9.967701435E-1,-1.852206349E0,-1.224328041E0,2.433762156E0
4.264689800E-1,8.754611015E-1,-1.760455012E0,-1.229615211E0,2.318962604E0
4.314689800E-1,7.422890663E-1,-1.595442533E0,-1.135274887E0,2.094105777E0
4.364689800E-1,5.977740288E-1,-1.466427565E0,-9.837665558E-1,1.864280083E0
4.414689800E-1,3.720774651E-1,-1.420528412E0,-7.368564606E-1,1.642954671E0
4.464689800E-1,1.436295509E-1,-1.399058461E0,-3.323583603E-1,1.445149164E0
4.514689800E-1,1.740639210E-1,-1.556461453E0,1.340055466E-1,1.571886762E0
4.564689800E-1,9.765074253E-1,-1.194434643E0,2.805938721E-1,1.568111536E0
4.614689800E-1,9.814989567E-1,-9.951349497E-1,1.235630989E0,1.865587766E0
4.664689800E-1,2.590973377E-1,-4.839930534E-1,1.738688469E0,1.823298741E0
4.714689800E-1,-6.774423122E-1,-2.659449279E-1,2.387353897E0,2.495819188E0
4.764689800E-1,-1.377468109E0,1.188382059E-1,3.410119057E0,3.679735438E0
4.814689800E-1,-1.594582796E0,5.602943897E-1,4.028682709E0,4.368856654E0
4.864689800E-1,-1.277976394E0,9.811506271E-1,3.619926453E0,3.962290719E0
4.914689800E-1,-8.946890235E-1,1.063410640E0,2.165174484E0,2.572798318E0
4.964689800E-1,-5.339627266E-1,1.018678188E0,5.885868073E-1,1.291996855E0
5.014689800E-1,-4.276343584E-1,8.756061792E-1,-6.912927628E-1,1.194756464E0
5.064689800E-1,-5.890636444E-1,7.461605668E-1,-1.551427841E0,1.819527388E0
5.114689800E-1,-8.568515778E-1,6.543793678E-1,-2.201656818E0,2.451468892E0
5.164689800E-1,-1.115363955E0,3.911066651E-1,-2.860908031E0,3.095447616E0
5.214689800E-1,-1.239178300E0,8.427557349E-2,-3.404711246E0,3.624185964E0
5.264689800E-1,-1.375806808E0,-2.257142365E-1,-3.764088154E0,4.013994385E0
5.314689800E-1,-1.502815247E0,-4.193000495E-1,-4.068847179E0,4.357726881E0
5.364689800E-1,-1.560909152E0,-4.899616241E-1,-4.312017918E0,4.611940838E0
5.414689800E-1,-1.867654800E0,-4.248570204E-1,-4.119277954E0,4.542806270E0
5.464689800E-1,-2.229454517E0,-2.310373187E-1,-3.503222466E0,4.158895686E0
5.514689800E-1,-2.575399876E0,3.508007526E-2,-2.540217400E0,3.617543306E0
5.564689800E-1,-2.920105934E0,2.054744959E-1,-1.385615349E0,3.238698555E0
5.614689800E-1,-2.818746805E0,2.554099560E-1,-1.111202240E-1,2.832475155E0
5.664689800E-1,-2.536695480E0,9.202063084E-2,1.005073547E0,2.730103403E0
5.714689800E-1,-2.004411697E0,-1.432645917E-1,1.879982948E0,2.751822466E0
5.764689800E-1,-1.443656325E0,-4.104562998E-1,2.542755127E0,2.952663475E0
5.814689800E-1,-1.118730664E0,-6.654114723E-1,2.865448952E0,3.147241399E0
5.864689800E-1,-8.722978830E-1,-8.483099341E-1,2.924668312E0,3.167683393E0
5.914689800E-1,-6.757346392E-1,-9.551438689E-1,2.786982536E0,3.022612905E0
5.964689800E-1,-5.442390442E-1,-1.114739418E0,2.541761398E0,2.828319486E0
6.014689800E-1,-4.396215677E-1,-1.346324325E0,2.241154671E0,2.651156459E0
6.064689800E-1,-3.148694038E-1,-1.524920702E0,1.884722710E0,2.444730165E0
6.114689800E-1,-1.904159784E-1,-1.594271183E0,1.477226257E0,2.181778235E0
6.164689800E-1,-8.025169373E-2,-1.575347185E0,1.088818550E0,1.916685922E0
6.214689800E-1,1.151716709E-2,-1.611212373E0,7.038612366E-1,1.758282854E0
6.264689800E-1,1.208785772E-1,-1.701569676E0,3.628463745E-1,1.744020781E0
6.314689800E-1,3.291940689E-1,-1.529836297E0,2.777853012E-1,1.589318251E0
6.364689800E-1,3.465036154E-1,-1.137912154E0,2.954597473E-1,1.225644846E0
6.414689800E-1,-2.642083168E-2,-9.748510122E-1,-3.717899323E-2,9.759174319E-1
6.464689800E-1,-4.455265999E-1,-1.172474742E0,-5.139226913E-1,1.355473166E0
6.514689800E-1,-6.290118098E-1,-1.179503918E0,-7.565698624E-1,1.535995868E0
6.564689800E-1,-5.699689984E-1,-1.228119612E0,-6.364383698E-1,1.496060239E0
6.614689800E-1,-5.296342969E-1,-1.088171005E0,-3.750419617E-1,1.266998460E0
6.664689800E-1,-5.374976397E-1,-1.308269501E-1,1.707801819E-1,5.789518754E-1
6.714689800E-1,-5.385215282E-1,2.461290359E-2,6.562280655E-1,8.492623301E-1
6.764689800E-1,-5.631804466E-1,9.804892540E-2,1.074064255E0,1.216716824E0
6.814689800E-1,-7.466313243E-1,3.028780818E-1,1.327669144E0,1.553028919E0
6.864689800E-1,-9.037511349E-1,3.451278210E-1,1.436886787E0,1.732201768E0
6.914689800E-1,-9.533982277E-1,3.466363549E-1,1.577162743E0,1.875251252E0
6.964689800E-1,-1.120685697E0,4.604398012E-1,1.733480453E0,2.114922155E0
7.014689800E-1,-1.104200721E0,4.517599344E-1,1.785249710E0,2.147198826E0
7.064689800E-1,-8.566718102E-1,2.475377917E-1,1.217597008E0,1.509206421E0
7.114689800E-1,-3.895826936E-1,5.525052547E-2,4.887580872E-1,6.274645516E-1
7.164689800E-1,-3.560719490E-1,-2.235599756E-1,1.541347504E-1,4.477988576E-1
7.214689800E-1,-4.331893325E-1,-4.303323030E-1,6.298351288E-2,6.138451040E-1
7.264689800E-1,-6.649054289E-1,-2.969462276E-1,8.422946930E-1,1.113434615E0
7.314689800E-1,-1.018893957E0,3.942914009E-1,3.013505936E0,3.205437354E0
7.364689800E-1,-8.704391718E-1,8.010003567E-1,3.912288666E0,4.087207913E0
7.414689800E-1,-5.015642047E-1,5.397839546E-1,2.325399399E0,2.439347399E0
7.464689800E-1,-5.886098742E-1,1.934797168E-1,8.577537537E-1,1.058129239E0
7.514689800E-1,-9.183671474E-1,4.736763239E-2,4.780139923E-1,1.036406912E0
7.564689800E-1,-9.578028917E-1,-4.030495882E-2,4.741668701E-2,9.598224895E-1
7.614689800E-1,-7.165429592E-1,-1.972938180E-1,-4.817180634E-1,8.856697780E-1
7.664689800E-1,-5.895081758E-1,-1.970571280E-1,-5.356197357E-1,8.205119758E-1
7.714689800E-1,-5.008761883E-1,-1.343470812E-1,-2.146558762E-1,5.612514939E-1
7.764689800E-1,-4.001753330E-1,-1.857288480E-1,-5.825233459E-2,4.450043108E-1
7.814689800E-1,-3.724741936E-1,-1.459000111E-1,-1.198835373E-1,4.176073522E-1
7.864689800E-1,-2.137939930E-1,-2.777949572E-1,-1.029539108E-1,3.653456137E-1
7.914689800E-1,-1.503729820E-2,-2.770170569E-1,-1.525306702E-2,2.778438882E-1
7.964689800E-1,1.660767794E-1,-1.551889181E-1,1.133241653E-1,2.539831951E-1
8.014689800E-1,2.672357559E-1,-5.292087793E-2,2.893304825E-1,3.974011785E-1
8.064689800E-1,3.069787025E-1,1.680898666E-2,4.491558075E-1,5.442971663E-1
8.114689800E-1,2.516273260E-1,1.096165776E-1,4.978494644E-1,5.684946741E-1
8.164689800E-1,1.875151396E-1,2.004825473E-1,4.687500000E-1,5.432142688E-1
8.214689800E-1,1.062994003E-1,2.919973135E-1,2.628211975E-1,4.069852276E-1
8.264689800E-1,1.541411877E-2,4.015744030E-1,-6.322002411E-2,4.068124478E-1
8.314689800E-1,-7.205379009E-2,5.000547171E-1,-3.197326660E-1,5.978925041E-1
8.364689800E-1,-1.824867725E-1,6.522568464E-1,-4.472875595E-1,8.116690069E-1
8.414689800E-1,-2.901372910E-1,7.269597054E-1,-5.449228287E-1,9.537247769E-1
8.464689800E-1,-3.283905983E-1,6.696208119E-1,-6.061124802E-1,9.610435762E-1
8.514689800E-1,-2.446867228E-1,5.365422368E-1,-6.081914902E-1,8.471399252E-1
8.564689800E-1,-8.939874172E-2,3.747463822E-1,-3.998680115E-1,5.552669742E-1
8.614689800E-1,1.349570751E-1,1.776855886E-1,-3.032302856E-2,2.251778554E-1
8.664689800E-1,2.976057529E-1,2.889680862E-2,3.085556030E-1,4.296635543E-1
8.714689800E-1,3.842608929E-1,-5.670234561E-2,4.490909576E-1,5.937628129E-1
8.764689800E-1,4.269330502E-1,-9.981298447E-2,5.200290680E-1,6.801945992E-1
8.814689800E-1,4.056009054E-1,-3.625041246E-2,6.110801697E-1,7.343331401E-1
8.864689800E-1,2.885824442E-1,8.122885227E-2,7.678270340E-1,8.242792656E-1
8.914689800E-1,9.014546871E-2,2.040933371E-1,9.374837875E-1,9.636680692E-1
8.964689800E-1,-1.010485291E-1,2.829411030E-1,1.090420723E0,1.131054298E0
9.014689800E-1,-2.519811988E-1,3.070614338E-1,1.217637062E0,1.280789313E0
9.064689800E-1,-2.893759608E-1,2.394599020E-1,1.378705025E0,1.428953126E0
9.114689800E-1,-2.554219961E-1,1.683557183E-1,1.529170990E0,1.559470410E0
9.164689800E-1,-1.552229524E-1,1.010346562E-1,1.588507652E0,1.599268185E0
9.214689800E-1,1.156365871E-2,9.543311596E-2,1.469049454E0,1.472191392E0
9.264689800E-1,2.514971495E-1,1.699021161E-1,1.159757614E0,1.198814109E0
9.314689800E-1,4.795022011E-1,3.538436294E-1,7.474908829E-1,9.559656348E-1
9.364689800E-1,7.145400047E-1,5.681548119E-1,3.542156219E-1,9.792017236E-1
9.414689800E-1,9.494440556E-1,7.401697636E-1,6.781387329E-2,1.205775275E0
9.464689800E-1,1.113457918E0,8.122446537E-1,-2.124614716E-1,1.394514177E0
9.514689800E-1,1.254756570E0,7.842535973E-1,-4.448413849E-1,1.545105696E0
9.564689800E-1,1.361088634E0,6.485130191E-1,-4.739303589E-1,1.580424433E0
9.614689800E-1,1.332760334E0,4.410775006E-1,-3.610191345E-1,1.449528987E0
9.664689800E-1,1.175192118E0,2.507846057E-1,-1.700592041E-1,1.213626617E0
9.714689800E-1,8.839093447E-1,1.160842851E-1,7.793331146E-2,8.948993753E-1
9.764689800E-1,4.695870876E-1,3.574229777E-2,3.667850494E-1,5.969261405E-1
9.814689800E-1,5.670744181E-2,-4.279537499E-2,5.991306305E-1,6.033280123E-1
9.864689800E-1,-2.790468335E-1,-1.163332164E-1,6.945295334E-1,7.574772771E-1
9.914689800E-1,-5.296781063E-1,-1.386294067E-1,6.787281036E-1,8.720371823E-1
9.964689800E-1,-7.111509442E-1,-9.586142004E-2,6.517610550E-1,9.693902981E-1
1.001468980E0,-8.089074492E-1,2.385330200E-2,5.932292938E-1,1.003404822E0
1.006468980E0,-8.111636043E-1,1.885842532E-1,3.713493347E-1,9.118392083E-1
1.011468980E0,-7.448024154E-1,4.187344909E-1,2.103996277E-2,8.546998841E-1
1.016468980E0,-6.352691054E-1,7.407358289E-1,-4.014501572E-1,1.055186540E0
1.021468980E0,-4.818890691E-1,1.137822390E0,-8.178110123E-1,1.481779915E0
1.026468980E0,-2.275769114E-1,1.443799853E0,-1.053030014E0,1.801449827E0
1.031468980E0,4.999560118E-2,1.477517366E0,-9.823951721E-1,1.775009127E0
1.036468980E0,2.893520594E-1,1.173721671E0,-8.564224243E-1,1.481487949E0
1.041468980E0,5.452989340E-1,5.715203881E-1,-8.359422684E-1,1.150124323E0
1.046468980E0,7.981902361E-1,-7.662782818E-2,-7.937335968E-1,1.128269693E0
1.051468980E0,9.669272304E-1,-5.810603499E-1,-4.811563492E-1,1.226413809E0
1.056468980E0,9.656773210E-1,-8.906513453E-1,9.876251221E-2,1.317401435E0
1.061468980E0,7.785009742E-1,-1.070211887E0,6.291837692E-1,1.465363254E0
1.066468980E0,5.089460611E-1,-1.178156137E0,9.025545120E-1,1.568975024E0
1.071468980E0,2.551295161E-1,-1.181706190E0,9.729404449E-1,1.551816258E0
1.076468980E0,2.449309826E-2,-1.051592231E0,1.016742706E0,1.462946295E0
1.081468980E0,-1.812346876E-1,-8.202105165E-1,1.013194084E0,1.316113048E0
1.086468980E0,-3.103913665E-1,-5.474501848E-1,8.438177109E-1,1.052650386E0
1.091468980E0,-3.006995320E-1,-2.720266581E-1,5.116271973E-1,6.528254746E-1
1.096468980E0,-2.135148942E-1,2.943295240E-2,9.445190430E-2,2.353212081E-1
1.101468980E0,-8.973836899E-2,3.579945564E-1,-3.595972061E-1,5.152894603E-1
1.106468980E0,9.028336406E-2,7.083462477E-1,-8.711795807E-1,1.126436574E0
1.111468980E0,2.933413386E-1,1.095675230E0,-1.355318069E0,1.767325782E0
1.116468980E0,5.304444432E-1,1.436605334E0,-1.621259689E0,2.230176938E0
1.121468980E0,7.372972965E-1,1.553487659E0,-1.510253906E0,2.288623619E0
1.126468980E0,7.983725071E-1,1.314952016E0,-1.125379562E0,1.906036889E0
1.131468980E0,7.251292467E-1,7.917827964E-1,-9.444503784E-1,1.429936690E0
1.136468980E0,6.298510432E-1,1.581639946E-1,-1.004112244E0,1.195813357E0
1.141468980E0,4.862888157E-1,-3.835548759E-1,-8.842544556E-1,1.079581909E0
1.146468980E0,2.327091098E-1,-7.332490087E-1,-4.036827087E-1,8.687734848E-1
1.151468980E0,6.492584944E-3,-9.876854420E-1,1.802158356E-1,1.004013164E0
1.156468980E0,-1.601641178E-1,-1.179232717E0,6.336936951E-1,1.348261860E0
1.161468980E0,-2.577014267E-1,-1.259454727E0,9.828939438E-1,1.618244957E0
1.166468980E0,-3.353787661E-1,-1.232351065E0,1.262899399E0,1.796129994E0
1.171468980E0,-4.218080938E-1,-1.135021806E0,1.355180740E0,1.817336349E0
1.176468980E0,-5.026354790E-1,-9.712317586E-1,1.191556931E0,1.617325407E0
1.181468980E0,-5.769429207E-1,-7.488498688E-1,8.414764404E-1,1.265591506E0
1.186468980E0,-6.312916279E-1,-4.492973685E-1,3.774766922E-1,8.619082886E-1
1.191468980E0,-6.918519139E-1,-4.139795899E-2,-1.119718552E-1,7.020758920E-1
1.196468980E0,-7.625839710E-1,4.424708486E-1,-5.915288925E-1,1.061706737E0
1.201468980E0,-8.034006953E-1,9.453273416E-1,-9.516544342E-1,1.563567275E0
1.206468980E0,-7.566310763E-1,1.330294251E0,-1.136403084E0,1.906196566E0
1.211468980E0,-6.221957803E-1,1.488265514E0,-1.097259521E0,1.950907555E0
1.216468980E0,-4.711845517E-1,1.335718632E0,-8.098602295E-1,1.631573699E0
1.221468980E0,-3.478616476E-1,8.555185795E-1,-5.673742294E-1,1.083897265E0
1.226468980E0,-2.209470868E-1,1.103761196E-1,-4.926271439E-1,5.510735031E-1
1.231468980E0,-1.531926841E-1,-5.002084970E-1,-2.837686539E-1,5.951480386E-1
1.236468980E0,-1.109266132E-1,-9.071649313E-1,1.307277679E-1,9.232240657E-1
1.241468980E0,-5.918257684E-2,-1.154359102E0,7.031831741E-1,1.352964926E0
1.246468980E0,-5.321932584E-2,-1.337094784E0,1.198076248E0,1.796118441E0
1.251468980E0,-6.401570141E-2,-1.485268235E0,1.385359764E0,2.032078103E0
1.256468980E0,-9.536185861E-2,-1.553973794E0,1.378502846E0,2.079470734E0
1.261468980E0,-1.369178891E-1,-1.493440151E0,1.354548454E0,2.020868998E0
1.266468980E0,-2.039826512E-1,-1.310688972E0,1.346529961E0,1.890147465E0
1.271468980E0,-3.110199571E-1,-1.054742455E0,1.236408234E0,1.654666245E0
1.276468980E0,-4.533631206E-1,-7.571815848E-1,9.424877167E-1,1.291179758E0
1.281468980E0,-5.951569080E-1,-4.463279843E-1,5.648002625E-1,9.340341275E-1
1.286468980E0,-7.196898460E-1,-1.348102391E-1,1.319627762E-1,7.440036622E-1
1.291468980E0,-8.393440247E-1,2.024512738E-1,-2.887344360E-1,9.104133592E-1
1.296468980E0,-8.989023566E-1,5.221445560E-1,-5.405445099E-1,1.171686285E0
1.301468980E0,-8.670948148E-1,6.301254034E-1,-5.386304855E-1,1.199597533E0
1.306468980E0,-8.555100560E-1,5.139513016E-1,-4.671850204E-1,1.101955190E0
1.311468980E0,-8.166999817E-1,1.774608642E-1,-4.519329071E-1,9.501234504E-1
1.316468980E0,-7.730546594E-1,-2.710198164E-1,-3.272714615E-1,8.821404972E-1
1.321468980E0,-7.809910178E-1,-7.100176811E-1,4.150962830E-2,1.056312040E0
1.326468980E0,-8.122643232E-1,-1.076447368E0,4.763374329E-1,1.430178176E0
1.331468980E0,-8.794485331E-1,-1.393979788E0,8.573074341E-1,1.857844290E0
1.336468980E0,-8.800886273E-1,-1.703046203E0,1.112288475E0,2.216327596E0
1.341468980E0,-8.132745028E-1,-1.925133705E0,1.201603889E0,2.410686024E0
1.346468980E0,-7.246378660E-1,-1.993214846E0,1.112808228E0,2.395067350E0
1.351468980E0,-6.563708186E-1,-1.949107885E0,9.748792648E-1,2.276012694E0
1.356468980E0,-6.445009112E-1,-1.826033950E0,8.278894424E-1,2.105987260E0
1.361468980E0,-6.917371154E-1,-1.669515252E0,5.813655853E-1,1.898359122E0
1.366468980E0,-7.991465330E-1,-1.489249706E0,2.246274948E-1,1.704980170E0
1.371468980E0,-9.828639030E-1,-1.260416985E0,-2.086715698E-1,1.611898338E0
1.376468980E0,-1.223194957E0,-9.635152817E-1,-6.215534210E-1,1.676572771E0
1.381468980E0,-1.453046560E0,-6.442639828E-1,-9.923830032E-1,1.873831479E0
1.386468980E0,-1.618822813E0,-3.322674036E-1,-1.310456276E0,2.109095678E0
1.391468980E0,-1.671721458E0,-7.296539843E-2,-1.492238045E0,2.242041696E0
1.396468980E0,-1.552539945E0,5.335836112E-2,-1.372844696E0,2.073144943E0
1.401468980E0,-1.401081920E0,1.504079998E-2,-1.120148659E0,1.793875634E0
1.406468980E0,-1.232194424E0,-2.367044985E-1,-9.852333069E-1,1.595310875E0
1.411468980E0,-1.042490005E0,-6.374887824E-1,-9.619302750E-1,1.555148614E0
1.416468980E0,-8.639735579E-1,-1.036770225E0,-8.836460114E-1,1.613125253E0
1.421468980E0,-7.222044468E-1,-1.357070684E0,-6.515636444E-1,1.669657237E0
1.426468980E0,-6.488865018E-1,-1.578342319E0,-4.132890701E-1,1.755854784E0
1.431468980E0,-6.678898931E-1,-1.698075175E0,-2.957639694E-1,1.848516307E0
1.436468980E0,-7.348539829E-1,-1.724186897E0,-2.966156006E-1,1.897580472E0
1.441468980E0,-8.094062209E-1,-1.702287316E0,-3.649587631E-1,1.919925894E0
1.446468980E0,-9.461092949E-1,-1.556663036E0,-3.421401978E-1,1.853478492E0
1.451468980E0,-1.134615421E0,-1.342934251E0,-2.702655792E-1,1.778726522E0
1.456468980E0,-1.371218204E0,-1.130022526E0,-2.507915497E-1,1.794459995E0
1.461468980E0,-1.631831884E0,-9.766439199E-1,-3.044328690E-1,1.925977159E0
1.466468980E0,-1.889367461E0,-8.796932697E-1,-4.075660706E-1,2.123600658E0
1.471468980E0,-2.144862652E0,-7.999615669E-1,-5.033779144E-1,2.343877904E0
1.476468980E0,-2.274061680E0,-7.496687770E-1,-5.743055344E-1,2.462353883E0
1.481468980E0,-2.302453995E0,-6.926199198E-1,-6.081447601E-1,2.480092095E0
1.486468980E0,-2.277678490E0,-5.972681046E-1,-6.312856674E-1,2.437841276E0
1.491468980E0,-2.179739475E0,-4.760288000E-1,-7.327156067E-1,2.348348304E0
1.496468980E0,-2.018986702E0,-3.497413397E-1,-9.730787277E-1,2.268371336E0
1.501468980E0,-1.779114962E0,-2.235393822E-1,-1.226368904E0,2.172372112E0
1.506468980E0,-1.506112099E0,-5.531230569E-2,-1.425594330E0,2.074548697E0
1.511468980E0,-1.211682796E0,1.420891583E-1,-1.619411469E0,2.027525100E0
1.516468980E0,-9.098510742E-1,3.459061980E-1,-1.805876732E0,2.051504532E0
1.521468980E0,-6.118724346E-1,4.755330086E-1,-1.985349655E0,2.131227996E0
1.526468980E0,-3.496428430E-1,5.386248827E-1,-2.084167004E0,2.180852810E0
1.531468980E0,-1.535978913E-1,5.390686989E-1,-2.117355347E0,2.190292455E0
1.536468980E0,-4.707971215E-2,4.633652568E-1,-2.089490414E0,2.140769499E0
1.541468980E0,-3.346735239E-2,3.203491271E-1,-1.912937164E0,1.939863970E0
1.546468980E0,-9.318035841E-2,1.134348810E-1,-1.605423927E0,1.612121595E0
1.551468980E0,-1.675298214E-1,-1.704929322E-1,-1.258245468E0,1.280748117E0
1.556468980E0,-1.980961561E-1,-4.757199287E-1,-1.076787949E0,1.193743617E0
1.561468980E0,-2.134108543E-1,-7.592135072E-1,-1.019435883E0,1.288875037E0
1.566468980E0,-2.545583844E-1,-9.374613762E-1,-9.314136505E-1,1.345795375E0
1.571468980E0,-3.100433350E-1,-1.038831711E0,-8.266267776E-1,1.363308484E0
1.576468980E0,-3.551468253E-1,-1.117295504E0,-7.579202652E-1,1.396037836E0
1.581468980E0,-3.418202996E-1,-1.195535779E0,-7.717885971E-1,1.463490538E0
1.586468980E0,-2.261191010E-1,-1.273499966E0,-9.036493301E-1,1.577819420E0
1.591468980E0,-1.242488027E-1,-1.278715730E0,-9.845085144E-1,1.618582311E0
1.596468980E0,-5.944132805E-2,-1.185563207E0,-9.339389801E-1,1.510409020E0
1.601468980E0,-3.993993998E-2,-1.112107873E0,-8.755273819E-1,1.415954560E0
1.606468980E0,-5.424171686E-2,-1.081476688E0,-8.862142563E-1,1.399253265E0
1.611468980E0,-9.836226702E-2,-1.074334979E0,-1.041536331E0,1.499556172E0
1.616468980E0,-1.494706273E-1,-1.054678559E0,-1.311182022E0,1.689345029E0
1.621468980E0,-2.199962735E-1,-9.844867587E-1,-1.520316124E0,1.824547521E0
1.626468980E0,-3.236140013E-1,-8.549385071E-1,-1.649009705E0,1.885438644E0
1.631468980E0,-4.243889451E-1,-7.037935853E-1,-1.749971390E0,1.933347163E0
1.636468980E0,-4.768545628E-1,-5.439517498E-1,-1.855193138E0,1.991234632E0
1.641468980E0,-4.105063081E-1,-4.309973121E-1,-1.820598602E0,1.915425118E0
1.646468980E0,-3.343569636E-1,-3.368913829E-1,-1.626681328E0,1.694515425E0
1.651468980E0,-3.089888096E-1,-3.177562356E-1,-1.345356941E0,1.416484525E0
1.656468980E0,-3.346051574E-1,-4.064705670E-1,-1.062602043E0,1.185876062E0
1.661468980E0,-3.295028806E-1,-6.151034832E-1,-8.299884796E-1,1.084345572E0
1.666468980E0,-2.669802308E-1,-8.622150421E-1,-6.313133240E-1,1.101476162E0
1.671468980E0,-2.201142311E-1,-1.094152927E0,-5.180711746E-1,1.230454650E0
1.676468980E0,-1.984852552E-1,-1.303025246E0,-4.320201874E-1,1.387051776E0
1.681468980E0,-1.753901839E-1,-1.482820034E0,-3.857450485E-1,1.542179047E0
1.686468980E0,-1.186473370E-1,-1.644139409E0,-4.055995941E-1,1.697581402E0
1.691468980E0,-5.112087727E-2,-1.711726904E0,-4.666538239E-1,1.774933275E0
1.696468980E0,-5.604207516E-3,-1.661867738E0,-5.248098373E-1,1.742773981E0
1.701468980E0,3.818273544E-2,-1.508881450E0,-6.132392883E-1,1.629184942E0
1.706468980E0,5.716735125E-2,-1.301403642E0,-7.039499283E-1,1.480697486E0
1.711468980E0,8.647322655E-3,-1.059016347E0,-7.298698425E-1,1.286196092E0
1.716468980E0,-1.157112718E-1,-8.611403704E-1,-7.505636215E-1,1.148171410E0
1.721468980E0,-2.848442197E-1,-7.150230408E-1,-8.258161545E-1,1.128878425E0
1.726468980E0,-4.770336151E-1,-6.149018407E-1,-9.543361664E-1,1.231431225E0
1.731468980E0,-6.511750817E-1,-5.562120676E-1,-1.051921844E0,1.356444034E0
1.736468980E0,-8.095915914E-1,-4.866556525E-1,-1.020545006E0,1.390605759E0
1.741468980E0,-9.570980072E-1,-4.309756756E-1,-8.822546005E-1,1.371185549E0
1.746468980E0,-1.071491480E0,-3.655616641E-1,-7.666406631E-1,1.367284619E0
1.751468980E0,-1.164674282E0,-3.176107109E-1,-6.841945648E-1,1.387611239E0
1.756468980E0,-1.229252100E0,-2.418923676E-1,-6.313009262E-1,1.402894687E0
1.761468980E0,-1.270614862E0,-1.029072553E-1,-6.058778763E-1,1.411431909E0
1.766468980E0,-1.259221911E0,5.814123154E-2,-7.168731689E-1,1.450147360E0
1.771468980E0,-1.159300566E0,2.022071332E-1,-9.270591736E-1,1.498100210E0
1.776468980E0,-9.394319654E-1,3.043475747E-1,-1.145123482E0,1.512107024E0
1.781468980E0,-5.788744688E-1,2.753753066E-1,-1.345485687E0,1.490388857E0
1.786468980E0,-1.578841507E-1,1.244050860E-1,-1.383204460E0,1.397733383E0
1.791468980E0,2.364229709E-1,-3.842942417E-2,-1.310652733E0,1.332360022E0
1.796468980E0,5.672919750E-1,-2.010372579E-1,-1.167634010E0,1.313622985E0
1.801468980E0,7.930989265E-1,-3.561297953E-1,-9.891710281E-1,1.316925837E0
1.806468980E0,8.948410153E-1,-4.804930091E-1,-7.746467590E-1,1.277376834E0
1.811468980E0,8.536860347E-1,-5.805654526E-1,-5.890970230E-1,1.188642668E0
1.816468980E0,7.477157116E-1,-6.360023022E-1,-4.059362411E-1,1.062243826E0
1.821468980E0,6.159845591E-1,-6.430404782E-1,-2.707815170E-1,9.307312521E-1
1.826468980E0,4.964309931E-1,-5.829290748E-1,-2.601919174E-1,8.086716707E-1
1.831468980E0,4.010459781E-1,-5.019237995E-1,-3.415193558E-1,7.275993729E-1
1.836468980E0,3.305741549E-1,-3.776831627E-1,-3.822441101E-1,6.308996774E-1
1.841468980E0,3.027019501E-1,-2.632968426E-1,-3.384313583E-1,5.248709196E-1
1.846468980E0,3.051734567E-1,-1.706442088E-1,-3.082742691E-1,4.661365783E-1
1.851468980E0,3.360887766E-1,-1.296136826E-1,-3.936872482E-1,5.336150503E-1
1.856468980E0,4.573167562E-1,-1.376950592E-1,-5.768194199E-1,7.488786203E-1
1.861468980E0,5.886321664E-1,-1.516073346E-1,-7.215261459E-1,9.434365853E-1
1.866468980E0,7.240085602E-1,-1.492210329E-1,-8.477830887E-1,1.124807307E0
1.871468980E0,8.590403795E-1,-1.598835886E-1,-9.664669037E-1,1.302908827E0
1.876468980E0,9.741688371E-1,-1.659793705E-1,-1.047740936E0,1.440248293E0
1.881468980E0,1.032865047E0,-1.712965369E-1,-1.034161568E0,1.471612333E0
1.886468980E0,1.008540154E0,-1.543228477E-1,-9.341516495E-1,1.383332240E0
1.891468980E0,9.300863743E-1,-9.912022948E-2,-7.946567535E-1,1.227340556E0
1.896468980E0,8.197479844E-1,-1.004774868E-2,-7.223081589E-1,1.092619234E0
1.901468980E0,7.113976479E-1,9.464232624E-2,-6.970520020E-1,1.000462531E0
1.906468980E0,6.420502067E-1,1.673599929E-1,-7.004718781E-1,9.648309111E-1
1.911468980E0,6.121286750E-1,1.799102277E-1,-7.414083481E-1,9.781388160E-1
1.916468980E0,6.788076162E-1,1.110245734E-1,-8.137760162E-1,1.065522238E0
1.921468980E0,8.450160623E-1,-6.503158063E-2,-7.918844223E-1,1.159897491E0
1.926468980E0,1.014459014E0,-2.705926299E-1,-5.676670074E-1,1.193563276E0
1.931468980E0,1.146404386E0,-5.078905821E-1,-2.721834183E-1,1.283074305E0
1.936468980E0,1.238025784E0,-7.652921677E-1,-1.182813644E-1,1.460263821E0
1.941468980E0,1.320396900E0,-9.896464348E-1,-7.827758789E-3,1.650124030E0
1.946468980E0,1.354307175E0,-1.138949633E0,1.132240295E-1,1.773181849E0
1.951468980E0,1.358250141E0,-1.212121606E0,2.410087585E-1,1.836346224E0
1.956468980E0,1.405618310E0,-1.234532475E0,2.753429413E-1,1.890938127E0
1.961468980E0,1.559066057E0,-1.272588849E0,2.457590103E-1,2.027453289E0
1.966468980E0,1.716199756E0,-1.301802158E0,1.579799652E-1,2.159858359E0
1.971468980E0,1.811311603E0,-1.261468530E0,7.626342773E-2,2.208612389E0
1.976468980E0,1.797088385E0,-1.128515363E0,8.534526825E-2,2.123760203E0
1.981468980E0,1.645108342E0,-9.469858408E-1,1.090707779E-1,1.901331132E0
1.986468980E0,1.427937627E0,-7.348372340E-1,5.303096771E-2,1.606799275E0
1.991468980E0,1.152876973E0,-5.048472881E-1,-3.373432159E-2,1.259021090E0
1.996468980E0,8.464933634E-1,-2.336809039E-1,-1.672449112E-1,8.939399529E-1
2.001468980E0,5.392777920E-1,5.350726843E-2,-3.334350586E-1,6.362880660E-1
2.006468980E0,1.194362789E-1,8.753454089E-1,-2.292017937E0,2.456387761E0
2.011468980E0,-1.709834218E0,3.839554310E0,-3.711764812E0,5.607397647E0
2.016468980E0,-3.604258299E0,3.167863607E0,3.607269287E0,6.003201598E0
2.021468980E0,-7.359844446E-1,3.144493401E-1,-3.149836063E0,3.249925956E0
2.026468980E0,-2.948672295E0,4.190647125E0,-2.034360886E1,2.097900410E1
2.031468980E0,-4.221037328E-1,2.003008366E0,-6.569576263E-1,2.149838923E0
2.036468980E0,7.763384581E-1,3.105860472E0,-1.571709633E0,3.566418630E0
2.041468980E0,2.527514100E-1,1.032725096E0,-1.028327942E-1,1.068166177E0
2.046468980E0,9.101624787E-2,5.267961025E-1,-1.196132660E0,1.310164658E0
2.051468980E0,1.046294570E-1,6.309636831E-1,7.669868469E-1,9.986647666E-1
2.056468980E0,-2.004288882E-2,3.436692059E-2,-3.034105301E-1,3.060077652E-1
2.061468980E0,-9.415309876E-3,8.050467819E-2,-3.691558838E-1,3.779493588E-1
2.066468980E0,-3.191246092E-2,-8.269467950E-2,-4.190549850E-1,4.283268561E-1
2.071468980E0,-6.299654394E-2,9.460809827E-2,-3.306808472E-1,3.496699579E-1
2.076468980E0,2.775560319E-2,8.338907361E-2,-3.811864853E-1,3.911869728E-1
2.081468980E0,5.417866260E-2,2.468402386E-1,-3.897552490E-1,4.645154303E-1
2.086468980E0,1.151471436E-1,2.908200324E-1,-2.671585083E-1,4.113500024E-1
2.091468980E0,3.316926956E-2,3.572826684E-1,-3.641386032E-1,5.112220925E-1
2.096468980E0,4.717125744E-2,4.110035300E-1,-3.269824982E-1,5.273201905E-1
2.101468980E0,-9.610096365E-2,4.371402264E-1,-2.365179062E-1,5.062288936E-1
2.106468980E0,-4.823337868E-2,-3.754654899E-2,-1.894903183E-1,1.991049545E-1
2.111468980E0,-3.789008781E-2,-5.602260828E-1,9.686279297E-2,5.697993711E-1
2.116468980E0,-1.864794344E-1,-7.273183465E-1,2.871980667E-1,8.038963155E-1
2.121468980E0,-4.400419593E-1,-6.336545348E-1,2.605495453E-1,8.142733331E-1
2.126468980E0,-3.396214843E-1,-1.049156427E0,-1.092157364E-1,1.108151632E0
2.131468980E0,1.338339746E-1,-9.456372261E-1,-2.688474655E-1,9.921795482E-1
2.136468980E0,6.689940393E-2,5.632813275E-2,-9.706878662E-2,1.306550348E-1
2.141468980E0,-6.685309112E-3,4.064948112E-2,2.043247223E-2,4.598434075E-2
2.146468980E0,2.881765366E-3,4.475764930E-2,-6.291389465E-3,4.528943943E-2
2.151468980E0,1.455902681E-2,4.355746880E-2,-1.055135727E-1,1.150753335E-1
2.156468980E0,4.130236059E-2,2.187976986E-2,-1.089115143E-1,1.185172024E-1
2.161468980E0,1.892912760E-2,5.289237946E-2,2.665996552E-2,6.218254931E-2
2.166468980E0,-1.902043819E-3,6.751240045E-2,1.237049103E-1,1.409412885E-1
2.171468980E0,4.104152322E-4,4.915721714E-2,7.458782196E-2,8.933053018E-2
2.176468980E0,1.929057762E-2,5.299238488E-2,5.857276917E-2,8.130860058E-2
2.181468980E0,1.182912290E-2,5.290066823E-2,8.307743073E-2,9.919812672E-2
2.186468980E0,5.532655865E-3,4.717028886E-2,9.858608246E-2,1.094297130E-1
2.191468980E0,5.570571870E-3,4.209963605E-2,8.400344849E-2,9.412751980E-2
2.196468980E0,1.473040134E-2,5.953881145E-2,6.080055237E-2,8.636296637E-2
2.201468980E0,-3.375649452E-3,4.719062150E-2,1.026163101E-1,1.129975967E-1
2.206468980E0,-1.777966321E-2,6.249292940E-2,1.316528320E-1,1.468126385E-1
2.211468980E0,4.358157516E-3,7.116144150E-2,1.431570053E-1,1.599277101E-1
2.216468980E0,-2.680012584E-2,1.448640972E-2,-2.100954056E-1,2.122926806E-1
2.221468980E0,4.123211652E-2,1.879148185E-3,-4.192161560E-2,5.883060840E-2
2.226468980E0,3.265781328E-2,4.904976487E-2,6.455707550E-2,8.740725484E-2
2.231468980E0,6.805799901E-2,5.438175797E-2,3.725719452E-2,9.474895975E-2
2.236468980E0,4.729804397E-2,9.078861773E-2,2.099990845E-3,1.023918358E-1
2.241468980E0,-1.013095826E-1,-4.495030642E-2,-1.477279663E-1,1.846827377E-1
2.246468980E0,-1.122582480E-1,3.768887371E-3,4.078388214E-2,1.194966268E-1
2.251468980E0,-3.164000064E-2,-2.897340432E-2,2.502164841E-1,2.538677543E-1
2.256468980E0,1.484762877E-2,8.384449780E-2,1.560611725E-1,1.777791930E-1
2.261468980E0,-6.721231341E-2,4.402052611E-3,-4.391002655E-2,8.040499719E-2
2.266468980E0,-1.837868690E-1,-8.564082533E-2,2.005100250E-2,2.037498636E-1
2.271468980E0,-1.651003063E-1,-1.324724257E-1,1.367874146E-1,2.520274816E-1
2.276468980E0,-3.766940534E-2,3.905843571E-2,1.570415497E-2,5.649040611E-2
2.281468980E0,1.121900752E-1,1.323838979E-1,9.593963623E-4,1.735310630E-1
2.286468980E0,2.091071010E-1,1.463214606E-1,-1.733970642E-2,2.558054240E-1
2.291468980E0,3.125544786E-1,2.343378365E-1,1.261425018E-2,3.908498984E-1
2.296468980E0,9.488758445E-2,1.287356615E-1,2.832412720E-4,1.599268722E-1
2.301468980E0,1.127155125E-2,4.275084287E-2,1.103401184E-3,4.422555741E-2
2.306468980E0,3.100760281E-3,3.171230480E-2,5.266571045E-2,6.155454530E-2
2.311468980E0,7.934272289E-4,5.042891204E-2,5.976104736E-2,7.819902479E-2
2.316468980E0,3.506333753E-2,6.366063654E-2,3.732681274E-2,8.170315315E-2
2.321468980E0,-4.565492272E-4,3.318078443E-2,-1.371097565E-2,3.590492649E-2
2.326468980E0,-2.419629693E-2,1.045727357E-2,-5.798339844E-3,2.698955540E-2
2.331468980E0,-8.859910071E-3,1.558578387E-2,4.935646057E-2,5.251166409E-2
2.336468980E0,1.655258238E-3,3.938123211E-2,3.092670441E-2,5.010072223E-2
2.341468980E0,1.441416889E-2,4.194447398E-2,-7.483482361E-3,4.497899144E-2
2.346468980E0,7.253665477E-3,9.613718837E-3,1.974487305E-2,2.312788932E-2
2.351468980E0,5.986601114E-3,2.634207532E-2,7.300472260E-2,7.784236537E-2
2.356468980E0,1.240333170E-2,3.562838584E-2,9.585952759E-2,1.030158898E-1
2.361468980E0,2.193950489E-2,5.517262965E-2,8.825683594E-2,1.063702497E-1
2.366468980E0,1.764561608E-2,5.926560983E-2,6.802082062E-2,9.192721204E-2
2.371468980E0,2.562672645E-2,7.084315270E-2,8.237648010E-2,1.116304881E-1
2.376468980E0,1.394316927E-2,5.144410580E-2,4.461956024E-2,6.951124475E-2
2.381468980E0,9.734697640E-3,5.490132794E-2,1.608371735E-2,5.803107884E-2
2.386468980E0,1.178909093E-2,4.795283079E-2,1.727390289E-2,5.231485800E-2
2.391468980E0,1.139467955E-2,4.993075505E-2,4.531574249E-2,6.838446855E-2
2.396468980E0,5.505613983E-3,4.556661472E-2,4.441165924E-2,6.386723447E-2
2.401468980E0,2.669520676E-3,4.897488654E-2,2.952671051E-2,5.724938852E-2
2.406468980E0,3.218784928E-3,1.906010509E-2,1.243410110E-1,1.258345549E-1
2.411468980E0,-2.309851348E-3,3.348662332E-2,6.276798248E-2,7.117941401E-2
2.416468980E0,-1.184739172E-2,1.695222408E-2,2.248287201E-2,3.054861905E-2
2.421468980E0,-2.756375074E-2,1.827888191E-4,-2.354717255E-2,3.625276682E-2
2.426468980E0,-8.363060653E-3,1.724757627E-2,-2.600002289E-2,3.230202564E-2
2.431468980E0,9.164214134E-7,3.009901196E-2,-4.132270813E-2,5.112256575E-2
2.436468980E0,-7.376894355E-3,3.168381751E-2,-9.503364563E-3,3.389095455E-2
2.441468980E0,-2.666458488E-3,4.117308557E-2,-9.155273438E-4,4.126949438E-2
2.446468980E0,-3.427624702E-3,3.082539141E-2,8.319854736E-3,3.211188798E-2
2.451468980E0,1.009543240E-2,4.918117821E-2,4.081916809E-2,6.470634072E-2
2.456468980E0,3.327749670E-3,4.171930626E-2,5.830287933E-2,7.176907531E-2
2.461468980E0,-4.807278514E-3,5.001302809E-2,5.626964569E-2,7.543663521E-2
2.466468980E0,6.261244416E-3,6.982317567E-2,3.205108643E-2,7.708275542E-2
2.471468980E0,-1.645720750E-2,2.869391814E-2,-6.170082092E-2,7.000837035E-2
2.476468980E0,1.613312215E-2,-1.050363481E-2,-1.647434235E-1,1.658644011E-1
2.481468980E0,1.280689240E-2,2.680241317E-2,-4.768753052E-2,5.618261663E-2
2.486468980E0,5.693331361E-3,4.624171555E-2,-2.727508545E-3,4.667065011E-2
2.491468980E0,2.213168889E-2,1.928750426E-2,-1.942157745E-2,3.519967535E-2
2.496468980E0,-3.611214459E-3,3.748150915E-2,-2.022171021E-2,4.274133785E-2
2.501468980E0,4.053115845E-6,6.609305739E-2,-5.723953247E-2,8.743372536E-2
2.506468980E0,-1.200776547E-2,7.405266166E-2,-8.132839203E-2,1.106448846E-1
2.511468980E0,9.388402104E-2,9.021607041E-2,6.818628311E-1,6.941830229E-1
2.516468980E0,-2.421705425E-1,2.200108618E-1,3.863811493E-1,5.063020279E-1
2.521468980E0,-2.725307643E-1,2.196355313E-1,-2.105607986E-1,4.084710933E-1
2.526468980E0,-5.107864141E-1,3.680678308E-1,-5.388545990E-2,6.318863282E-1
2.531468980E0,-7.342689633E-1,5.656407475E-1,-1.197242737E-2,9.269539928E-1
2.536468980E0,-8.561618328E-1,7.063922882E-1,-1.172866821E-1,1.116135885E0
2.541468980E0,-9.426714182E-1,7.643596530E-1,9.082794189E-3,1.213654637E0
2.546468980E0,1.099475384E0,-7.773539424E-1,-1.491851807E-1,1.354762521E0
2.551468980E0,1.408616304E0,-1.111660719E0,4.180927277E-1,1.842495855E0
2.556468980E0,8.435892463E-1,-5.699168444E-1,4.827337265E-1,1.126711976E0
2.561468980E0,1.462517381E-1,-6.327140331E-2,-3.402957916E-1,3.757579902E-1
2.566468980E0,4.094402865E-2,6.700851023E-3,-3.705682755E-1,3.728835765E-1
2.571468980E0,4.704773426E-3,3.569734097E-2,-5.867862701E-2,6.884487136E-2
2.576468980E0,9.867250919E-4,4.978907853E-2,2.630329132E-1,2.677055087E-1
2.581468980E0,7.116816938E-3,5.256097764E-2,4.151268005E-1,4.185015723E-1
2.586468980E0,9.964212775E-3,3.191341460E-2,8.552455902E-2,9.182702088E-2
2.591468980E0,1.362778246E-3,3.847825527E-2,-1.004858017E-1,1.076096168E-1
2.596468980E0,2.431415021E-3,3.012765944E-2,1.399326324E-2,3.330764265E-2
2.601468980E0,-1.451402903E-3,2.769378573E-2,1.041898727E-1,1.078173544E-1
2.606468980E0,4.386454821E-3,3.927061707E-2,8.099937439E-2,9.012392026E-2
2.611468980E0,-7.667534053E-3,3.964840621E-2,6.639480591E-3,4.092517435E-2
2.616468980E0,9.866714478E-3,3.236424923E-2,2.748012543E-2,4.358846150E-2
2.621468980E0,5.765900016E-3,2.158557624E-2,2.718257904E-2,3.518629432E-2
2.626468980E0,4.575401545E-4,2.714677900E-2,-1.208496094E-2,2.971873540E-2
2.631468980E0,-2.880468965E-4,1.841539145E-2,-3.833770752E-2,4.253221639E-2
2.636468980E0,5.418203771E-3,2.864351124E-2,-1.755428314E-2,3.402881903E-2
2.641468980E0,8.681423962E-3,3.476702422E-2,-5.403518677E-3,3.623963451E-2
2.646468980E0,5.184262991E-4,3.352271765E-2,-9.693145752E-3,3.489983437E-2
2.651468980E0,-5.263797939E-3,3.011864424E-2,-2.239418030E-2,3.789907137E-2
2.656468980E0,-5.760677159E-3,4.558913410E-2,1.342105865E-2,4.787148801E-2
2.661468980E0,-9.458385408E-3,3.484193981E-2,5.904865265E-2,6.921101938E-2
2.666468980E0,1.694999635E-3,2.998749912E-2,7.077217102E-2,7.688187900E-2
2.671468980E0,7.425136864E-3,2.823226154E-2,5.117416382E-2,5.891509392E-2
2.676468980E0,7.082946599E-3,1.692069322E-2,1.938724518E-2,2.668975959E-2
2.681468980E0,4.950977862E-3,2.281165868E-2,-1.771926880E-3,2.340990556E-2
2.686468980E0,-5.499877036E-3,1.629087329E-2,2.986621857E-2,3.446204015E-2
2.691468980E0,2.585053444E-4,2.115447819E-2,7.479667664E-2,7.773108521E-2
2.696468980E0,6.039276719E-3,2.118861675E-2,7.062339783E-2,7.398036675E-2
2.701468980E0,1.186731830E-2,2.404486388E-2,9.323501587E-2,9.701420982E-2
2.706468980E0,5.745053291E-3,2.174468338E-2,8.372592926E-2,8.669410662E-2
2.711468980E0,8.508667350E-3,3.906553239E-2,1.076984406E-2,4.140655482E-2
2.716468980E0,-2.570041269E-2,5.335456878E-2,2.545976639E-1,2.613947048E-1
2.721468980E0,-2.872913331E-2,1.077838764E-1,1.340634346E0,1.345266954E0
2.726468980E0,3.316065297E-2,-1.570850611E-2,-3.829565048E-1,3.847103724E-1
2.731468980E0,3.172481805E-2,-2.959612757E-2,-1.145977974E0,1.146798985E0
2.736468980E0,-5.137188733E-2,6.363204122E-2,5.655851364E-1,5.714671067E-1
2.741468980E0,-1.916424930E-2,5.788284913E-2,2.991590500E-1,3.053094002E-1
2.746468980E0,-2.071665972E-2,2.206834406E-2,-4.788970947E-1,4.798527057E-1
2.751468980E0,-1.137306541E-2,4.132453352E-2,-6.731891632E-2,7.980538943E-2
2.756468980E0,-1.279579103E-2,4.630061239E-2,-1.337299347E-1,1.420956523E-1
2.761468980E0,-2.134224027E-2,5.321654305E-2,-6.478786469E-2,8.651565803E-2
2.766468980E0,-1.155795753E-1,1.509360373E-1,-9.903907776E-3,1.903638962E-1
2.771468980E0,-3.396560848E-1,3.644515276E-1,-5.543804169E-2,5.012629533E-1
2.776468980E0,-5.157272220E-1,4.791402221E-1,-3.698730469E-2,7.049240956E-1
2.781468980E0,-6.175085306E-1,4.774518609E-1,4.573059082E-2,7.819004744E-1
2.786468980E0,-5.436846018E-1,4.058355689E-1,3.787040710E-2,6.795068969E-1
2.791468980E0,-4.303974509E-1,3.493471742E-1,2.042865753E-2,5.547096032E-1
2.796468980E0,-2.993177772E-1,2.356159985E-1,2.025985718E-2,3.814662400E-1
2.801468980E0,-7.952132821E-2,4.915289581E-2,3.360271454E-2,9.934178995E-2
2.806468980E0,3.024725914E-1,-2.338971198E-1,2.575969696E-2,3.832245989E-1
2.811468980E0,6.493326426E-1,-4.778554738E-1,9.387016296E-3,8.062672327E-1
2.816468980E0,8.612647057E-1,-6.475268602E-1,3.698158264E-2,1.078163051E0
2.821468980E0,9.223079085E-1,-6.806561351E-1,2.845287323E-2,1.146627323E0
2.826468980E0,5.235197544E-1,-3.667533994E-1,2.027702332E-2,6.395249384E-1
2.831468980E0,6.053317338E-2,-1.947237551E-2,1.439762115E-2,6.519762252E-2
2.836468980E0,3.880403936E-3,2.021965384E-2,9.928703308E-3,2.285762642E-2
2.841468980E0,1.653802395E-2,2.400413901E-2,1.722145081E-2,3.385680572E-2
2.846468980E0,1.153624803E-2,1.582165062E-2,4.898071289E-3,2.018417076E-2
2.851468980E0,7.380940020E-3,2.010986209E-2,-6.399154663E-3,2.235696780E-2
2.856468980E0,-1.859784126E-3,2.796895057E-2,1.763439178E-2,3.311635195E-2
2.861468980E0,2.657391131E-3,2.788329124E-2,1.838874817E-2,3.350650261E-2
2.866468980E0,-5.913600326E-4,2.398473024E-2,3.315639496E-2,4.092631816E-2
2.871468980E0,-6.023876369E-3,2.033597231E-2,3.162860870E-2,3.808159325E-2
2.876468980E0,-5.384676158E-3,2.935811132E-2,3.773021698E-2,4.810886312E-2
2.881468980E0,-9.169936180E-3,3.066150844E-2,3.637695312E-2,4.845099120E-2
2.886468980E0,7.356479764E-4,2.118492126E-2,3.428268433E-2,4.030687921E-2
2.891468980E0,1.761391759E-4,2.404741943E-2,3.379726410E-2,4.147968740E-2
2.896468980E0,-1.120597124E-3,2.841713279E-2,4.786300659E-2,5.567455949E-2
2.901468980E0,-6.782852113E-3,2.652799338E-2,4.937648773E-2,5.646042026E-2
2.906468980E0,-9.933724999E-3,2.815485373E-2,1.593589783E-3,2.989839811E-2
2.911468980E0,1.094445586E-3,2.689234912E-2,1.201915741E-2,2.947637015E-2
2.916468980E0,-3.858812153E-3,3.027690947E-2,1.963043213E-2,3.628960655E-2
2.921468980E0,-3.511369228E-3,3.042073920E-2,3.091812134E-2,4.351644878E-2
2.926468980E0,-6.204441190E-3,3.540064767E-2,3.035068512E-2,4.704109940E-2
2.931468980E0,-8.862674236E-3,1.979584619E-2,1.432704926E-2,2.599397741E-2
2.936468980E0,1.055949926E-2,1.466808468E-2,-2.999687195E-2,3.502096600E-2
2.941468980E0,5.295354873E-2,-1.908455789E-2,-7.568073273E-2,9.431793032E-2
2.946468980E0,1.809618622E-2,1.072652265E-2,-1.522350311E-2,2.596700389E-2
2.951468980E0,1.058202982E-2,2.389549091E-2,9.829521179E-3,2.792119854E-2
2.956468980E0,2.914940566E-2,5.888193846E-4,6.432533264E-3,2.985652429E-2
2.961468980E0,4.005879164E-3,1.545962691E-2,7.606506348E-3,1.768915122E-2
2.966468980E0,-9.700208902E-4,1.685968041E-2,8.865356445E-3,1.907313055E-2
2.971468980E0,4.630982876E-3,2.079550922E-2,1.257991791E-2,2.474173682E-2
2.976468980E0,5.929291248E-3,1.994270086E-2,1.148986816E-2,2.376730702E-2
2.981468980E0,9.742826223E-3,1.580959931E-2,1.078796387E-2,2.147664447E-2
2.986468980E0,3.506854177E-3,2.764918283E-2,1.737689972E-2,3.284405549E-2
2.991468980E0,5.738064647E-3,2.395792678E-2,3.658962250E-2,4.411018155E-2
2.996468980E0,9.778589010E-4,2.682181820E-2,3.544712067E-2,4.446194444E-2
3.001468980E0,1.041561365E-3,1.508224383E-2,2.518463135E-2,2.937387590E-2
3.006468980E0,1.815229654E-3,1.784619316E-2,1.971054077E-2,2.665121173E-2
3.011468980E0,7.840022445E-3,1.876266301E-2,2.237510681E-2,3.023489507E-2
3.016468980E0,8.911624551E-3,2.397428080E-2,1.979827881E-3,2.565351654E-2
3.021468980E0,1.007382572E-2,2.575585246E-2,-4.187583923E-3,2.797108792E-2
3.026468980E0,2.671360970E-3,2.103037387E-2,-7.629394531E-5,2.119949564E-2
3.031468980E0,1.201838255E-3,1.333225518E-2,-3.657341003E-3,1.387694443E-2
3.036468980E0,7.124245167E-5,2.686332911E-2,3.145217896E-3,2.704692075E-2
3.041468980E0,6.330668926E-3,2.290751040E-2,4.975318909E-3,2.428137558E-2
3.046468980E0,6.100073457E-3,1.812714711E-2,1.287078857E-2,2.305345000E-2
3.051468980E0,1.444742084E-3,2.014278993E-2,1.401329041E-2,2.458030866E-2
3.056468980E0,4.983991385E-3,2.127043158E-2,3.499984741E-4,2.184934618E-2
3.061468980E0,7.051080465E-4,2.052400261E-2,1.437759399E-2,2.506884660E-2
3.066468980E0,5.159378052E-4,1.677927375E-2,2.748966217E-2,3.221011868E-2
3.071468980E0,-3.109022975E-3,1.762776822E-2,1.222419739E-2,2.167568310E-2
3.076468980E0,5.125373602E-3,2.572787181E-2,1.785469055E-2,3.173299256E-2
3.081468980E0,2.672269940E-3,1.176118851E-2,6.217002869E-3,1.356899799E-2
3.086468980E0,9.272679687E-3,1.520747319E-2,1.623630524E-2,2.410119161E-2
3.091468980E0,1.401320100E-3,1.535760611E-2,1.587772369E-2,2.213417885E-2
3.096468980E0,-1.793950796E-3,1.087913662E-2,1.775932312E-2,2.090376595E-2
3.101468980E0,3.673583269E-3,1.043967903E-2,2.698802948E-2,2.916909062E-2
3.106468980E0,2.455711365E-3,1.381775364E-2,1.942062378E-2,2.396083183E-2
3.111468980E0,1.266066730E-2,9.458303452E-3,7.756233215E-3,1.760429363E-2
3.116468980E0,4.318818450E-3,9.017683566E-3,1.990318298E-3,1.019471317E-2
3.121468980E0,4.545450211E-3,1.247043535E-2,-1.812934875E-3,1.339625352E-2
3.126468980E0,1.491273940E-2,1.788048074E-2,-1.109886169E-2,2.579314092E-2
3.131468980E0,4.356116056E-3,1.829043776E-2,8.804321289E-3,2.076130858E-2
3.136468980E0,-1.378059387E-3,5.262862891E-3,1.444816589E-2,1.543846725E-2
3.141468980E0,-4.080146551E-3,1.396384463E-2,1.412487030E-2,2.027679742E-2
3.146468980E0,5.736947060E-5,2.135818824E-2,1.615715027E-2,2.678113144E-2
3.151468980E0,8.444786072E-4,1.293047890E-2,1.224708557E-2,1.782979343E-2
3.156468980E0,8.776336908E-4,2.206799388E-2,1.786327362E-2,2.840533646E-2
3.161468980E0,2.978131175E-3,2.191471308E-2,1.713562012E-2,2.797773028E-2
3.166468980E0,-3.406018019E-3,1.867067441E-2,1.170063019E-2,2.229573476E-2
3.171468980E0,-3.920942545E-4,1.684674248E-2,3.521919250E-3,1.721541127E-2
3.176468980E0,1.722410321E-3,1.698008552E-2,6.827354431E-3,1.838213182E-2
3.181468980E0,1.385504007E-2,1.759184152E-2,1.047897339E-2,2.472334740E-2
3.186468980E0,3.598809242E-3,1.352640986E-2,2.091979980E-2,2.517048302E-2
3.191468980E0,-4.092440009E-3,1.150159165E-2,1.120948792E-2,1.657369286E-2
3.196468980E0,4.122585058E-3,1.085781679E-2,1.885986328E-2,2.214909334E-2
3.201468980E0,4.886522889E-3,1.532408968E-2,1.099872589E-2,1.948532272E-2
3.206468980E0,1.755803823E-3,1.049777120E-2,1.090621948E-2,1.523914928E-2
3.211468980E0,7.314309478E-3,1.598643512E-2,8.497238159E-3,1.952609247E-2
3.216468980E0,6.315514445E-3,7.715146989E-3,9.283065796E-3,1.362294118E-2
3.221468980E0,-3.840446472E-3,1.466645300E-2,1.066207886E-2,1.853466478E-2
3.226468980E0,4.057928920E-3,7.078710943E-3,9.120941162E-3,1.223791254E-2
3.231468980E0,1.121163368E-3,1.421684399E-2,-2.287864685E-3,1.444333705E-2
3.236468980E0,1.913383603E-3,6.083264947E-3,3.448486328E-3,7.249772906E-3
3.241468980E0,2.696454525E-3,5.021356046E-3,9.133338928E-3,1.076581458E-2
3.246468980E0,3.655776381E-3,1.986662298E-2,6.037712097E-3,2.108320130E-2
3.251468980E0,3.203883767E-3,7.143042982E-3,-1.516342163E-3,7.974160005E-3
3.256468980E0,1.132041216E-3,9.220797569E-3,1.198005676E-2,1.516002590E-2
3.261468980E0,-1.081228256E-4,1.043726876E-2,4.425048828E-4,1.044720443E-2
3.266468980E0,-2.109721303E-3,8.855648339E-3,-3.990173340E-3,9.939563107E-3
3.271468980E0,4.788845778E-3,5.035415292E-3,4.989624023E-3,8.554811450E-3
3.276468980E0,-1.092760265E-2,1.427599043E-2,1.567459106E-2,2.385181769E-2
3.281468980E0,5.381569266E-3,1.247525960E-2,1.623821259E-2,2.117245706E-2
3.286468980E0,-4.112690687E-3,2.126256377E-2,9.949684143E-3,2.383289863E-2
3.291468980E0,-2.946630120E-3,1.854586974E-2,2.070808411E-2,2.795454633E-2
3.296468980E0,-2.126708627E-3,1.640804484E-2,2.851295471E-2,3.296567020E-2
3.301468980E0,8.948743343E-4,1.633616909E-2,1.732254028E-2,2.382732932E-2
3.306468980E0,-1.611560583E-3,1.433439925E-2,9.306907654E-3,1.716655643E-2
3.311468980E0,4.417389631E-3,8.432347327E-3,-1.780509949E-3,9.684421939E-3
3.316468980E0,2.031579614E-3,2.938106656E-3,-1.346588135E-2,1.393160963E-2
3.321468980E0,1.069405675E-2,2.424575388E-3,-1.438140869E-2,1.808497530E-2
3.326468980E0,-8.312419057E-3,5.024708807E-3,6.552696228E-3,1.171673321E-2
3.331468980E0,-1.593068242E-3,1.341746747E-2,1.414299011E-2,1.955991997E-2
3.336468980E0,6.174609065E-3,1.390197873E-2,1.115703583E-2,1.886452380E-2
3.341468980E0,7.522471249E-3,1.427100599E-2,1.300907135E-2,2.072402285E-2
3.346468980E0,2.026617527E-3,3.717988729E-4,3.262233734E-2,3.268734169E-2
3.351468980E0,-1.189431548E-2,1.200093701E-2,2.136707306E-2,2.724057711E-2
3.356468980E0,2.753391862E-3,1.732103527E-2,1.634693146E-2,2.397543738E-2
3.361468980E0,-2.612873912E-3,1.120630652E-2,1.205921173E-2,1.666832335E-2
3.366468980E0,-2.417519689E-3,9.166862816E-3,6.849288940E-3,1.169566306E-2
3.371468980E0,7.383421063E-3,8.957985789E-3,-1.033020020E-2,1.553941608E-2
3.376468980E0,8.400559425E-3,8.891399950E-3,4.598617554E-3,1.306804022E-2
3.381468980E0,-4.738420248E-4,8.825365454E-3,2.471065521E-2,2.624362937E-2
3.386468980E0,-1.024961472E-3,8.759882301E-3,1.174545288E-2,1.468814989E-2
3.391468980E0,-6.740301847E-3,1.685347781E-2,7.364273071E-3,1.958836137E-2
3.396468980E0,1.496821642E-3,8.345749229E-3,1.246833801E-2,1.507817821E-2
3.401468980E0,-5.002543330E-3,3.787547350E-3,5.399703979E-3,8.278149417E-3
3.406468980E0,4.135474563E-3,8.253894746E-3,-6.079673767E-3,1.105402015E-2
3.411468980E0,3.258183599E-3,1.336943358E-2,4.852294922E-3,1.459117133E-2
3.416468980E0,-2.782061696E-3,1.748536527E-2,8.438110352E-3,1.961324992E-2
3.421468980E0,-3.544375300E-3,8.871253580E-3,1.727104187E-2,1.973703685E-2
3.426468980E0,-2.402588725E-3,1.316694915E-2,1.305866241E-2,1.869945578E-2
3.431468980E0,-3.886938095E-3,1.073924080E-2,1.208019257E-2,1.662439873E-2
3.436468980E0,8.499324322E-4,1.158767566E-2,1.835727692E-2,2.172524403E-2
3.441468980E0,4.771940410E-3,1.721661910E-2,1.674938202E-2,2.448928718E-2
3.446468980E0,5.939751863E-4,7.131502032E-3,-1.392364502E-3,7.290391393E-3
3.451468980E0,8.672676980E-3,3.174893558E-3,2.728462219E-3,9.630149594E-3
3.456468980E0,3.349915147E-3,1.567486301E-2,-9.577751160E-3,1.867234798E-2
3.461468980E0,-1.608118415E-3,2.145376801E-2,-4.999160767E-3,2.208714140E-2
3.466468980E0,2.616621554E-3,5.234189332E-3,1.960563660E-2,2.046031360E-2
3.471468980E0,5.296126008E-3,8.551809937E-3,2.897357941E-2,3.067002947E-2
3.476468980E0,-4.974797368E-3,1.154385507E-2,1.630020142E-2,2.058411438E-2
3.481468980E0,1.045809686E-2,1.253465563E-2,1.616573334E-2,2.297434038E-2
3.486468980E0,-1.368090510E-3,1.148044318E-2,1.251697540E-2,1.703956926E-2
3.491468980E0,-6.232678890E-3,7.966563106E-3,1.566696167E-2,1.864848792E-2
3.496468980E0,-6.702095270E-4,7.529113442E-3,-1.764297485E-3,7.762053571E-3
3.501468980E0,3.544099629E-3,7.354658097E-3,1.304912567E-2,1.539257349E-2
3.506468980E0,-4.226490855E-3,9.790789336E-3,1.723957062E-2,2.027129931E-2
3.511468980E0,7.468909025E-4,-2.863451838E-3,7.195472717E-3,7.780233292E-3
3.516468980E0,4.347644746E-3,-2.961397171E-3,-7.768630981E-3,9.382084809E-3
3.521468980E0,-9.826272726E-4,1.204156876E-2,6.914138794E-4,1.210136305E-2
3.526468980E0,-6.391957402E-3,1.202200353E-2,2.031612396E-2,2.445670831E-2
3.531468980E0,-3.281950951E-3,5.677562207E-3,1.738929749E-2,1.858476746E-2
3.536468980E0,-2.488985658E-3,1.548424363E-3,1.153182983E-2,1.189856155E-2
3.541468980E0,-2.890989184E-3,-4.669301212E-3,1.513195038E-2,1.609770526E-2
3.546468980E0,1.540094614E-3,1.188791916E-2,1.803970337E-2,2.165930310E-2
3.551468980E0,-1.630544662E-3,3.627698869E-3,-5.023002625E-3,6.406982936E-3
3.556468980E0,-9.077340364E-4,5.940780044E-3,6.458282471E-3,8.821919353E-3
3.561468980E0,-3.914892673E-3,1.480395347E-2,2.552890778E-2,2.976925520E-2
3.566468980E0,-3.871709108E-3,1.109968126E-2,2.385902405E-2,2.659785864E-2
3.571468980E0,-5.316466093E-3,1.741650328E-2,2.765655518E-4,1.821197097E-2
3.576468980E0,3.305092454E-3,6.902631372E-3,-3.733634949E-3,8.515279556E-3
3.581468980E0,1.325861365E-2,-5.631670356E-3,-1.512718201E-2,2.088870945E-2
3.586468980E0,6.944522262E-3,4.514440894E-3,-1.852989197E-2,2.029688307E-2
3.591468980E0,4.773139954E-3,1.204325259E-2,1.010227203E-2,1.642798521E-2
3.596468980E0,5.095124245E-3,8.265040815E-3,6.581306458E-3,1.172965411E-2
3.601468980E0,5.382418633E-3,7.418248802E-3,-2.148628235E-3,9.413684131E-3
3.606468980E0,2.452969551E-3,2.098448575E-3,5.006790161E-4,3.266684178E-3
3.611468980E0,4.934445024E-3,-1.957613975E-3,4.987716675E-4,5.331957740E-3
3.616468980E0,-3.877222538E-3,-6.177794188E-3,7.801055908E-4,7.335295521E-3
3.621468980E0,-2.474978566E-3,9.272869676E-3,5.235671997E-3,1.093269830E-2
3.626468980E0,1.111388206E-3,4.471015185E-3,1.187324524E-2,1.273574156E-2
3.631468980E0,-2.091646194E-3,7.112652063E-3,1.933288574E-2,2.070568217E-2
3.636468980E0,-3.571003675E-3,1.128959656E-2,1.500415802E-2,1.911365521E-2
3.641468980E0,5.188539624E-3,2.407736704E-2,1.430320740E-2,2.848196427E-2
3.646468980E0,-2.079993486E-3,4.796158522E-3,1.282024384E-2,1.384514938E-2
3.651468980E0,-3.278851509E-3,9.130574763E-3,6.997108459E-3,1.196151284E-2
3.656468980E0,1.955211163E-3,9.899578989E-3,7.836341858E-3,1.277625800E-2
3.661468980E0,6.429374218E-3,1.536404714E-2,4.934310913E-3,1.737061374E-2
3.666468980E0,-2.942249179E-3,6.042316556E-3,9.173393250E-3,1.137178804E-2
3.671468980E0,-2.802595496E-3,7.267013192E-3,3.201484680E-3,8.421016946E-3
3.676468980E0,2.164676785E-3,1.277583465E-2,-7.468223572E-3,1.495600682E-2
3.681468980E0,3.440991044E-3,4.558961838E-3,1.727104187E-3,5.967197104E-3
3.686468980E0,1.964285970E-3,4.257559776E-4,-4.402160645E-3,4.839287743E-3
3.691468980E0,2.477005124E-3,5.764771253E-3,-7.382392883E-3,9.688543062E-3
3.696468980E0,4.883572459E-3,8.365895599E-3,4.466056824E-3,1.066691861E-2
3.701468980E0,-1.083269715E-3,5.303442478E-3,2.598762512E-3,6.004460175E-3
3.706468980E0,-3.509372473E-3,5.500674248E-3,5.625724792E-3,8.615212811E-3
3.711468980E0,-3.700867295E-3,5.708370358E-3,-9.130477905E-3,1.138628726E-2
3.716468980E0,-3.052935004E-3,1.003061980E-2,-2.175331116E-3,1.070821232E-2
3.721468980E0,-2.569437027E-3,4.654999822E-3,1.225090027E-2,1.335498362E-2
3.726468980E0,-3.470465541E-3,1.254937053E-2,3.769874573E-3,1.355517562E-2
3.731468980E0,7.133781910E-4,1.733636111E-2,6.840705872E-3,1.865083327E-2
3.736468980E0,7.620453835E-4,2.315990627E-3,1.821708679E-2,1.837952059E-2
3.741468980E0,4.789501429E-3,1.799926162E-3,1.751995087E-2,1.825178721E-2
3.746468980E0,1.000344753E-3,5.242053419E-3,6.257057190E-3,8.223781269E-3
3.751468980E0,3.923326731E-3,1.087209582E-2,-3.242492676E-5,1.155837409E-2
3.756468980E0,2.180814743E-3,3.123808652E-3,1.514530182E-2,1.561711563E-2
3.761468980E0,1.064075530E-2,9.707324207E-4,8.601188660E-3,1.371672122E-2
3.766468980E0,2.990201116E-3,5.582023412E-3,-1.244831085E-2,1.396641440E-2
3.771468980E0,8.614704013E-3,3.574885428E-3,-2.834320068E-3,9.748143480E-3
3.776468980E0,5.514949560E-3,3.584906459E-3,-1.141071320E-2,1.317082376E-2
3.781468980E0,8.959367871E-3,5.487967283E-3,-1.890087128E-2,2.162477728E-2
3.786468980E0,4.676759243E-3,1.492485404E-2,-1.022815704E-2,1.868792502E-2
3.791468980E0,7.706835866E-3,2.253837883E-3,-1.272296906E-2,1.504490099E-2
3.796468980E0,3.212913871E-3,2.488162369E-3,-1.128292084E-2,1.199241719E-2
3.801468980E0,1.123188436E-2,-5.169518292E-3,-1.638889313E-2,2.052985542E-2
3.806468980E0,7.229328156E-3,6.079003215E-3,1.335144043E-3,9.539395960E-3
3.811468980E0,-5.068361759E-3,1.399790868E-2,4.452705383E-3,1.553886494E-2
3.816468980E0,-7.412984967E-3,9.049631655E-3,5.561828613E-3,1.295307364E-2
3.821468980E0,-1.333965361E-2,6.017386913E-3,1.548194885E-2,2.130366269E-2
3.826468980E0,-7.335931063E-3,1.255948097E-2,2.630138397E-2,3.005526985E-2
3.831468980E0,-4.322990775E-3,7.852599025E-3,1.144981384E-2,1.454131348E-2
3.836468980E0,-2.647608519E-3,6.856147200E-3,8.056640625E-3,1.090532180E-2
3.841468980E0,3.522530198E-3,1.008532569E-2,4.147529602E-3,1.145966906E-2
3.846468980E0,-1.393392682E-3,6.550028920E-3,1.132106781E-2,1.315336453E-2
3.851468980E0,-5.521655083E-3,3.296077251E-3,-5.926132202E-3,8.744818064E-3
3.856468980E0,-1.291763783E-2,-2.503007650E-3,-2.137184143E-3,1.333034022E-2
3.861468980E0,-8.812114596E-3,1.106115803E-2,1.839923859E-2,2.320634743E-2
3.866468980E0,-1.006250083E-2,7.993839681E-3,1.571464539E-2,2.030038117E-2
3.871468980E0,-3.853932023E-3,3.240622580E-3,-3.617286682E-3,6.199934652E-3
3.876468980E0,5.789183080E-3,2.164464444E-3,-1.593875885E-2,1.709513325E-2
3.881468980E0,-3.046765924E-3,-3.540128469E-3,1.276016235E-3,4.841849812E-3
3.886468980E0,1.323005557E-2,-2.282455564E-3,3.619194031E-3,1.390476678E-2
3.891468980E0,-2.997636795E-3,1.225342602E-2,3.584861755E-3,1.311424833E-2
3.896468980E0,-5.193784833E-3,8.516926318E-3,1.095771790E-3,1.003564401E-2
3.901468980E0,2.197816968E-3,1.238599420E-2,-1.208305359E-3,1.263737526E-2
3.906468980E0,-5.946293473E-3,1.678771898E-2,7.589340210E-3,1.935933882E-2
3.911468980E0,-2.358302474E-3,4.142597318E-3,1.833343506E-2,1.894300779E-2
3.916468980E0,-4.142373800E-3,1.260032877E-2,2.548789978E-2,2.873257004E-2
3.921468980E0,-2.215877175E-3,7.367812097E-3,2.132797241E-2,2.267327003E-2
3.926468980E0,9.391538799E-3,-6.448626518E-4,8.889198303E-3,1.294738179E-2
3.931468980E0,-6.215080619E-3,2.595294267E-3,2.112007141E-2,2.216799936E-2
3.936468980E0,-6.142482162E-3,-3.925547004E-3,8.160591125E-3,1.094236053E-2
3.941468980E0,-1.664355397E-3,1.014601812E-2,3.603935242E-3,1.089495809E-2
3.946468980E0,4.194132984E-3,-4.021316767E-3,-8.972167969E-3,1.068931888E-2
3.951468980E0,5.024820566E-3,-5.231574178E-3,-6.821632385E-3,9.957552837E-3
3.956468980E0,8.573450148E-3,1.596953720E-3,-1.137828827E-2,1.433596012E-2
3.961468980E0,4.561014473E-3,9.855926037E-4,-1.924514771E-3,5.047573963E-3
3.966468980E0,6.309628487E-3,-9.324029088E-4,-5.532264709E-3,8.443147496E-3
3.971468980E0,5.650319159E-3,-4.482567310E-4,-5.798339844E-3,8.108500826E-3
3.976468980E0,3.161408007E-3,-1.986131072E-3,-1.683616638E-2,1.724516499E-2
3.981468980E0,6.243973970E-3,3.258496523E-3,-2.067470551E-2,2.184143902E-2
3.986468980E0,8.321821690E-3,4.828099161E-3,5.117416382E-3,1.089730279E-2
3.991468980E0,-1.936227083E-3,9.247697890E-3,1.074695587E-2,1.430964542E-2
3.996468980E0,-8.190400898E-3,1.556769013E-2,-8.440017700E-4,1.761101877E-2
4.001468980E0,-1.794573665E-2,7.932640612E-3,1.676273346E-2,2.580630706E-2
4.006468980E0,-1.014975458E-2,5.558297038E-3,2.641868591E-2,2.884196854E-2
4.011468980E0,-9.059891105E-3,1.230525598E-2,1.116180420E-2,1.892318220E-2
4.016468980E0,-3.140635788E-3,1.539871842E-2,9.409904480E-3,1.831748958E-2
4.021468980E0,2.920538187E-3,6.665624678E-3,1.504993439E-2,1.671707572E-2
4.026468980E0,9.661838412E-4,4.572298378E-3,4.762649536E-3,6.672499852E-3
4.031468980E0,4.042312503E-4,1.357863471E-2,2.593040466E-3,1.382991621E-2
4.036468980E0,-4.666104913E-3,1.282817498E-2,1.179122925E-2,1.803795153E-2
4.041468980E0,-9.619653225E-3,7.703926414E-3,2.601623535E-2,2.878771808E-2
4.046468980E0,-8.171826601E-3,1.607347280E-3,7.156372070E-3,1.098070929E-2
4.051468980E0,1.067444682E-2,7.751844823E-4,-1.496124268E-2,1.839520341E-2
4.056468980E0,4.079401493E-3,-9.616337717E-3,-1.208686829E-2,1.597522621E-2
4.061468980E0,1.151725650E-3,-1.170295849E-2,-1.708507538E-2,2.074091392E-2
4.066468980E0,4.553817213E-3,-9.074125439E-3,-3.756237030E-2,3.891026428E-2
4.071468980E0,7.193326950E-3,-1.350604743E-2,-4.153442383E-2,4.426359263E-2
4.076468980E0,-4.750922322E-3,-1.253847033E-2,-6.160736084E-3,1.475598760E-2
4.081468980E0,1.661255956E-3,3.296148032E-3,-1.654624939E-3,4.045015066E-3
4.086468749E0,-2.321362495E-3,8.652813733E-3,-3.031730652E-3,9.457869743E-3
4.091468593E0,1.021325588E-4,4.890359938E-3,6.914138794E-4,4.940051066E-3
4.096468593E0,2.470061183E-3,4.414655268E-3,1.200675964E-3,5.199231304E-3
4.101468593E0,2.921648324E-3,2.456031740E-3,2.642631531E-3,4.642372480E-3
4.106468593E0,-2.181619406E-3,2.365626395E-3,9.307861328E-4,3.349927506E-3
4.111468593E0,1.133173704E-3,5.162432790E-4,1.606178284E-2,1.610998006E-2
4.116468593E0,2.547703683E-3,2.201184630E-3,7.840156555E-3,8.532529674E-3
4.121468593E0,7.435463369E-3,6.942898035E-4,1.233386993E-2,1.441847778E-2
4.126468593E0,-5.347050726E-3,5.738638341E-3,1.663208008E-2,1.838882838E-2
4.131468593E0,-2.157926559E-3,-1.769267023E-3,2.220535278E-2,2.238000547E-2
4.136468593E0,-2.588614821E-3,9.923353791E-3,2.613258362E-2,2.807286597E-2
4.141468593E0,-2.843111753E-3,1.099667698E-2,1.819229126E-2,2.144690305E-2
4.146468593E0,-6.605997682E-3,6.397455931E-3,1.506233215E-2,1.764767683E-2
4.151468593E0,-7.860936224E-3,1.583203673E-3,1.162147522E-2,1.411947373E-2
4.156468593E0,2.431347966E-3,2.698376775E-4,5.064964294E-3,5.624778094E-3
4.161468593E0,8.090861142E-3,-2.284474671E-3,-6.412506104E-3,1.057360360E-2
4.166468593E0,1.081649214E-2,3.310211003E-3,-1.243209839E-2,1.680806561E-2
4.171468593E0,2.779424191E-3,-1.901313663E-3,-2.329540253E-2,2.353754387E-2
4.176468593E0,-3.128722310E-4,8.081942797E-4,-1.714038849E-2,1.716228378E-2
4.181468593E0,2.450376749E-3,-3.516666591E-3,-6.423950195E-3,7.722591938E-3
4.186468593E0,6.330333650E-3,5.257427692E-4,1.154899597E-3,6.456262283E-3
4.191468593E0,1.338893920E-2,6.797812879E-3,-1.396179199E-3,1.508055931E-2
4.196468593E0,1.057919115E-2,-1.268163323E-4,-3.508567810E-3,1.114654277E-2
4.201468593E0,3.558032215E-3,1.275056601E-2,-1.199150085E-2,1.786148425E-2
4.206468593E0,1.860492676E-2,6.863445044E-3,3.700256348E-4,1.983398842E-2
4.211468593E0,2.119881660E-2,-3.715150058E-3,-5.321502686E-3,2.217003735E-2
4.216468593E0,3.459293023E-2,3.905370831E-4,-1.991271973E-2,3.991666003E-2
4.221468593E0,5.104561150E-2,-6.190389395E-4,-4.636478424E-2,6.896180740E-2
4.226468593E0,3.224135935E-2,3.832779825E-3,-1.986780167E-1,2.013135608E-1
4.231468593E0,1.086791009E-1,-1.556575298E-4,-4.803886414E-1,4.925285961E-1
4.236468593E0,3.989519775E-1,1.540540904E-2,-1.322372437E0,1.381328660E0
4.241468593E0,1.181383252E0,-9.890082479E-2,-2.469483852E0,2.739306164E0
4.246468593E0,1.492017031E0,-2.867318094E-1,-4.205222130E0,4.471266388E0
4.251468593E0,1.434016466E0,-5.513802767E-1,-6.181982994E0,6.370034315E0
4.256468593E0,1.062245488E0,-2.452101409E-1,-7.213867188E0,7.295777771E0
4.261468593E0,6.779270768E-1,-1.525030285E-2,-8.024549484E0,8.053149205E0
4.266468593E0,2.736831307E-1,3.674814850E-2,-8.764607430E0,8.768956396E0
4.271468593E0,-2.558810078E-2,1.869715750E-2,-9.342410088E0,9.342463839E0
4.276468593E0,-7.737226784E-2,1.849614084E-3,-9.483723640E0,9.484039434E0
4.281468593E0,-7.494810969E-2,1.337848604E-3,-9.487174034E0,9.487470167E0
4.286468593E0,-7.895503938E-2,8.753910661E-4,-9.479742050E0,9.480070886E0
4.291468593E0,-7.235462219E-2,-5.628705025E-3,-9.496715546E0,9.496992841E0
4.296468593E0,-7.407213002E-2,-1.792046800E-2,-9.496754646E0,9.497060421E0
4.301468593E0,-6.835366786E-2,-1.821738109E-2,-9.468051910E0,9.468316169E0
4.306468593E0,-6.434608996E-2,-1.872074232E-2,-9.470850945E0,9.471088031E0
4.311468593E0,-7.129672170E-2,-2.353049070E-2,-9.449903488E0,9.450201736E0
4.316468593E0,-6.810233742E-2,-2.164051682E-2,-9.428996086E0,9.429266856E0
4.321468593E0,-7.259700447E-2,-2.802315354E-2,-9.427402496E0,9.427723662E0
4.326468593E0,-6.189913303E-2,-3.913278878E-2,-9.412181854E0,9.412466740E0
4.331468593E0,-5.748500302E-2,-5.390042067E-2,-9.397403717E0,9.397734110E0
4.336468593E0,-5.653814226E-2,-6.183642149E-2,-9.364187241E0,9.364562082E0
4.341468593E0,-5.934350938E-2,-6.305475533E-2,-9.349171638E0,9.349572604E0
4.346468593E0,-6.449732184E-2,-6.196898594E-2,-9.328080177E0,9.328508983E0
4.351468593E0,-5.052024499E-2,-5.798443034E-2,-9.311292648E0,9.311610241E0
4.356468593E0,-5.599163100E-2,-7.095634192E-2,-9.297295570E0,9.297734928E0
4.361468593E0,-4.172562063E-2,-7.820901275E-2,-9.262640953E0,9.263065103E0
4.366468593E0,-4.440232366E-2,-8.138922602E-2,-9.263817787E0,9.264281719E0
4.371468593E0,-3.074324131E-2,-8.476103842E-2,-9.227534294E0,9.227974790E0
4.376468593E0,-4.116557539E-2,-9.163703769E-2,-9.200845718E0,9.201394127E0
4.381468593E0,-3.286195546E-2,-1.048067808E-1,-9.189888954E0,9.190545324E0
4.386468593E0,-2.986081876E-2,-1.059790403E-1,-9.161446571E0,9.162108191E0
4.391468593E0,-2.911341377E-2,-1.052295566E-1,-9.141698837E0,9.142350818E0
4.396468593E0,-2.161597647E-2,-1.076575294E-1,-9.106913567E0,9.107575534E0
4.401468593E0,-2.728525735E-2,-1.200849861E-1,-9.098852158E0,9.099685460E0
4.406468593E0,-2.221981436E-2,-1.204829514E-1,-9.083532333E0,9.084358509E0
4.411468593E0,-2.208084241E-2,-1.252228618E-1,-9.074963570E0,9.075854347E0
4.416468593E0,-1.501295716E-2,-1.257983595E-1,-9.050346375E0,9.051233072E0
4.421468593E0,-2.033584192E-2,-1.350014508E-1,-9.035066605E0,9.036098023E0
4.426468593E0,-7.317304611E-3,-1.422195584E-1,-9.013193130E0,9.014318075E0
4.431468593E0,-1.880288124E-3,-1.388744414E-1,-9.001977921E0,9.003049268E0
4.436468593E0,1.583769917E-3,-1.489935815E-1,-8.990466118E0,8.991700763E0
4.441468593E0,3.321185708E-3,-1.413638890E-1,-8.967656136E0,8.968770894E0
4.446468593E0,1.182126999E-2,-1.565737426E-1,-8.940411568E0,8.941790317E0
4.451468593E0,1.677441597E-2,-1.643841267E-1,-8.936014175E0,8.937541769E0
4.456468593E0,1.628677174E-2,-1.627950370E-1,-8.919790268E0,8.921290596E0
4.461468593E0,1.268246025E-2,-1.703431010E-1,-8.892262459E0,8.893902926E0
4.466468593E0,2.676793560E-2,-1.739211380E-1,-8.881068230E0,8.882811378E0
4.471468593E0,2.806152776E-2,-1.912446022E-1,-8.860108376E0,8.862216561E0
4.476468593E0,3.042365611E-2,-1.906280220E-1,-8.844380379E0,8.846486813E0
4.481468593E0,3.471806273E-2,-1.900533438E-1,-8.826715469E0,8.828829571E0
4.486468593E0,4.453624040E-2,-1.885099262E-1,-8.814060211E0,8.816188342E0
4.491468593E0,5.253070220E-2,-2.002501190E-1,-8.810324669E0,8.812756683E0
4.496468593E0,5.371001363E-2,-2.039133608E-1,-8.795400620E0,8.797928022E0
4.501468593E0,5.397696793E-2,-1.974752098E-1,-8.783528328E0,8.785913718E0
4.506468593E0,6.142789125E-2,-2.061514705E-1,-8.753959656E0,8.756602165E0
4.511468593E0,6.977191567E-2,-2.070251852E-1,-8.731373787E0,8.734106466E0
4.516468593E0,7.504550368E-2,-2.194139659E-1,-8.717285156E0,8.720368961E0
4.521468593E0,9.597636759E-2,-2.173823118E-1,-8.700597763E0,8.703842138E0
4.526468593E0,9.756380320E-2,-2.176896036E-1,-8.673818588E0,8.677098384E0
4.531468593E0,1.019143462E-1,-2.283594012E-1,-8.648381233E0,8.651995868E0
4.536468593E0,1.132593304E-1,-2.185254097E-1,-8.629687309E0,8.633196632E0
4.541468593E0,1.272411346E-1,-2.225086987E-1,-8.623191833E0,8.627000511E0
4.546468593E0,1.308654547E-1,-2.239712626E-1,-8.601901054E0,8.605811446E0
4.551468593E0,1.368610263E-1,-2.227686942E-1,-8.582826614E0,8.586807877E0
4.556468593E0,1.517067403E-1,-2.244455218E-1,-8.576663971E0,8.580941417E0
4.561468593E0,1.564343572E-1,-2.215475589E-1,-8.557696342E0,8.561992859E0
4.566468593E0,1.681228131E-1,-2.180954516E-1,-8.536559105E0,8.540999488E0
4.571468593E0,1.785995215E-1,-2.194310427E-1,-8.516099930E0,8.520798424E0
4.576468593E0,1.874633580E-1,-2.310057729E-1,-8.499525070E0,8.504730013E0
4.581468593E0,1.976910383E-1,-2.225956172E-1,-8.461920738E0,8.467156142E0
4.586468593E0,2.109598219E-1,-2.199697495E-1,-8.444551468E0,8.450049718E0
4.591468593E0,2.270854861E-1,-2.215019464E-1,-8.433687210E0,8.439651112E0
4.596468593E0,2.303085923E-1,-2.230351865E-1,-8.402933121E0,8.409047019E0
4.601468593E0,2.430090159E-1,-2.191053927E-1,-8.379348755E0,8.385734679E0
4.606468593E0,2.549335361E-1,-2.174338698E-1,-8.342428207E0,8.349154268E0
4.611468593E0,2.681653500E-1,-2.146359682E-1,-8.315963745E0,8.323054383E0
4.616468593E0,2.895012796E-1,-2.000261247E-1,-8.279593468E0,8.287067602E0
4.621468593E0,2.953538001E-1,-1.902754456E-1,-8.253924370E0,8.261398557E0
4.626468593E0,3.095113039E-1,-1.881552190E-1,-8.239404678E0,8.247362553E0
4.631468593E0,3.147798479E-1,-1.901437044E-1,-8.211393356E0,8.219624191E0
4.636468593E0,3.274541199E-1,-1.814973205E-1,-8.188944817E0,8.197498685E0
4.641468593E0,3.508695662E-1,-1.579834223E-1,-8.153205872E0,8.162281188E0
4.646468593E0,3.736881912E-1,-1.647288799E-1,-8.130836487E0,8.141085950E0
4.651468593E0,3.926194906E-1,-1.547868848E-1,-8.114334106E0,8.125301658E0
4.656468593E0,3.971706033E-1,-1.495325863E-1,-8.094480515E0,8.105598021E0
4.661468593E0,4.172340631E-1,-1.483254433E-1,-8.064430237E0,8.076578468E0
4.666468593E0,4.347892404E-1,-1.352672875E-1,-8.050532341E0,8.063399401E0
4.671468593E0,4.540917575E-1,-1.246780604E-1,-8.020067215E0,8.033879640E0
4.676468593E0,4.638514519E-1,-1.091110408E-1,-7.986466408E0,8.000669289E0
4.681468593E0,4.813911915E-1,-9.933625162E-2,-7.963892460E0,7.979046828E0
4.686468593E0,5.072762370E-1,-9.465775639E-2,-7.929193974E0,7.945967930E0
4.691468593E0,5.217108130E-1,-8.938375860E-2,-7.903838158E0,7.921542101E0
4.696468593E0,5.383203626E-1,-7.946190238E-2,-7.870833397E0,7.889621117E0
4.701468593E0,5.697753429E-1,-6.944911927E-2,-7.840165138E0,7.861148549E0
4.706468593E0,5.814738870E-1,-6.142725050E-2,-7.802722454E0,7.824599855E0
4.711468593E0,6.064779758E-1,-3.610482067E-2,-7.762642384E0,7.786381436E0
4.716468593E0,6.307514310E-1,-2.614405751E-2,-7.712965488E0,7.738757491E0
4.721468593E0,6.415831447E-1,-1.249850541E-2,-7.670197487E0,7.696993870E0
4.726468593E0,6.661480069E-1,-1.172840595E-3,-7.620796680E0,7.649855985E0
4.731468593E0,6.847063899E-1,9.729154408E-3,-7.581377983E0,7.612240775E0
4.736468593E0,6.978076100E-1,3.666609526E-2,-7.555386066E0,7.587630623E0
4.741468593E0,7.090515494E-1,3.256953508E-2,-7.473289967E0,7.506921992E0
4.746468593E0,7.333132625E-1,5.361567438E-2,-7.390230656E0,7.426717453E0
4.751468593E0,7.489820123E-1,6.821482629E-2,-7.306373596E0,7.344979404E0
4.756468593E0,7.579923272E-1,7.253164053E-2,-7.213194847E0,7.253274647E0
4.761468593E0,7.796910405E-1,8.026754856E-2,-7.123458385E0,7.166451030E0
4.766468593E0,7.963342071E-1,1.098572612E-1,-7.045020103E0,7.090735155E0
4.771468593E0,8.137925863E-1,1.112271100E-1,-6.933757305E0,6.982236047E0
4.776468593E0,8.256286383E-1,1.240454763E-1,-6.830002308E0,6.880841624E0
4.781468593E0,8.386697173E-1,1.392728984E-1,-6.705973625E0,6.759648371E0
4.786468593E0,8.563746810E-1,1.629327536E-1,-6.584853172E0,6.642305020E0
4.791468593E0,8.695150018E-1,1.663384140E-1,-6.394199371E0,6.455192515E0
4.796468593E0,8.960607052E-1,1.627758294E-1,-6.118123055E0,6.185535585E0
4.801468593E0,9.266027212E-1,1.833476424E-1,-5.545429230E0,5.625299486E0
4.806468593E0,9.954132438E-1,1.853978634E-1,-3.617769241E0,3.756790409E0
4.811468593E0,9.143254280E0,-4.498680115E0,7.214485931E1,7.286094940E1
4.816468593E0,-2.192050934E1,-4.632371902E0,1.447545471E2,1.464781435E2
4.821468593E0,-1.570824909E1,2.794811487E0,1.481763916E2,1.490328926E2
4.827718593E0,-6.682463169E0,-5.085695267E0,1.482894897E2,1.485270763E2
4.832718593E0,8.028945923E0,-8.292116523E-1,1.458106232E2,1.460338639E2
4.837718593E0,6.370909691E0,7.693834305E-1,1.226429062E2,1.228106790E2
4.842718593E0,4.510004520E0,-8.234962225E-1,8.850509644E1,8.862375743E1
4.847718593E0,3.470717430E0,-2.445331335E0,5.764612579E1,5.780226072E1
4.852718593E0,2.266798973E0,-2.916571379E0,3.067901421E1,3.090059350E1
4.857718593E0,1.149243236E0,-2.699658155E0,1.223949623E1,1.258626959E1
4.862718593E0,3.125603199E-1,-2.138915062E0,6.783590317E-1,2.265573343E0
4.867718593E0,-3.225519657E-1,-1.302930593E0,-6.990052223E0,7.117759337E0
4.872718593E0,-1.026873469E0,-3.761109114E-1,-1.090089893E1,1.095561619E1
4.877718593E0,-1.706076384E0,4.507932663E-1,-1.132786560E1,1.146448648E1
4.882718593E0,-2.218897104E0,8.443495631E-1,-1.008314896E1,1.035887655E1
4.887718593E0,-2.439104080E0,9.761029482E-1,-9.431198120E0,9.790275975E0
4.892718593E0,-2.578409910E0,1.055856228E0,-9.181056976E0,9.594521210E0
4.897718593E0,-2.711890697E0,1.165029287E0,-9.107742310E0,9.574059451E0
4.902718593E0,-2.825899601E0,1.241966605E0,-8.943621635E0,9.461319018E0
4.907718593E0,-2.935074091E0,1.314205289E0,-8.837759972E0,9.404668882E0
4.912718593E0,-3.036117077E0,1.389428258E0,-8.737621307E0,9.353851822E0
4.917718593E0,-3.145988464E0,1.451348066E0,-8.631807327E0,9.301169408E0
4.922718593E0,-3.245453358E0,1.516952395E0,-8.536963463E0,9.258177857E0
4.927718593E0,-3.351743937E0,1.587125897E0,-8.454439163E0,9.232047313E0
4.932718593E0,-3.457454681E0,1.645928144E0,-8.354021072E0,9.189817213E0
4.937718593E0,-3.552834511E0,1.701136708E0,-8.234011650E0,9.127729565E0
4.942718593E0,-3.650155306E0,1.758681536E0,-8.124840736E0,9.079076577E0
4.947718593E0,-3.766509771E0,1.825116396E0,-8.019604683E0,9.046087828E0
4.952718593E0,-3.869544744E0,1.884519815E0,-7.920051575E0,9.013989595E0
4.957718593E0,-3.963168621E0,1.941692472E0,-7.808662891E0,8.969508979E0
4.962718593E0,-4.053818226E0,1.997333288E0,-7.696794987E0,8.925437555E0
4.967718593E0,-4.154276371E0,2.060358047E0,-7.594073296E0,8.897923166E0
4.972718593E0,-4.249660492E0,2.118564129E0,-7.505773544E0,8.881698304E0
4.977718593E0,-4.345015526E0,2.167991877E0,-7.424311638E0,8.871288068E0
4.982718593E0,-4.440031528E0,2.235373735E0,-7.330594063E0,8.857109293E0
4.987718593E0,-4.532894611E0,2.292287111E0,-7.242952824E0,8.846585746E0
4.992718593E0,-4.621684074E0,2.347804308E0,-7.154876709E0,8.835406582E0
4.997718593E0,-4.703064919E0,2.404961586E0,-7.064567089E0,8.821041209E0
5.002718593E0,-4.801157951E0,2.452597857E0,-6.973539352E0,8.814567773E0
5.007718593E0,-4.881559849E0,2.514811516E0,-6.872422218E0,8.796822760E0
5.012718593E0,-4.972343922E0,2.562083721E0,-6.776184082E0,8.786645992E0
5.017718593E0,-5.052172184E0,2.613291264E0,-6.679677963E0,8.773359260E0
5.022718593E0,-5.137293339E0,2.665585518E0,-6.580647469E0,8.763677887E0
5.027718593E0,-5.219094276E0,2.711989641E0,-6.471464157E0,8.744923168E0
5.032718593E0,-5.287463665E0,2.763883591E0,-6.378614426E0,8.734016631E0
5.037718593E0,-5.374128819E0,2.815514565E0,-6.275728226E0,8.728868631E0
5.042718593E0,-5.448001862E0,2.864441872E0,-6.158844471E0,8.707302495E0
5.047718593E0,-5.509794235E0,2.921811104E0,-6.047844410E0,8.687418181E0
5.052718593E0,-5.245028496E0,2.832077980E0,-5.823918343E0,8.333607530E0
5.057718593E0,-2.451882124E0,1.709078193E0,-3.251052141E0,4.416108495E0
5.062718593E0,6.907119751E-1,2.327189445E-1,-3.370428085E-1,8.030186763E-1
5.067718593E0,2.538270473E0,-1.379185677E0,1.288843155E0,3.163239922E0
5.072718593E0,3.541350365E0,-3.271094322E0,9.575328827E-1,4.915087964E0
5.077718593E0,4.767795086E0,-5.488053322E0,1.458973885E-1,7.271305611E0
5.082718593E0,6.447136879E0,-7.486169815E0,-1.169047356E0,9.948617198E0
5.087718593E0,8.307518005E0,-8.640502930E0,-2.854154110E0,1.232149918E1
5.092718593E0,9.117156029E0,-8.574848175E0,-4.784224510E0,1.339922981E1
5.097718593E0,8.429572105E0,-7.489989281E0,-6.919534683E0,1.323017708E1
5.102718593E0,6.808943272E0,-5.780839920E0,-8.464918137E0,1.230587899E1
5.107718593E0,4.639738083E0,-3.819691181E0,-9.360755920E0,1.112389148E1
5.112718593E0,2.627511263E0,-1.898249865E0,-9.346113205E0,9.892269710E0
5.117718593E0,1.119417667E0,-9.950602055E-2,-8.898041725E0,8.968731455E0
5.122718593E0,-1.931693554E-1,1.654768705E0,-7.719326973E0,7.897061655E0
5.127718593E0,-2.287455320E0,3.571108341E0,-3.004064560E0,5.197082884E0
5.132718593E0,-4.298937798E0,6.270431042E0,1.860757828E1,2.010077464E1
5.137718593E0,-6.490074635E0,9.997307777E0,3.430237198E1,3.631418394E1
5.142718593E0,-5.556857586E0,8.975735664E0,1.105937195E1,1.528895696E1
5.147718593E0,-6.949555874E0,1.065637207E1,1.765567589E1,2.176183548E1
5.152718593E0,-1.043537807E1,1.218216133E1,3.271695709E1,3.643763784E1
5.157718593E0,-1.094260597E1,9.034413338E0,3.277930069E1,3.571895580E1
5.162718593E0,-9.630577087E0,4.214159966E0,2.745210075E1,2.939600305E1
5.167718593E0,-8.602705002E0,9.713393450E-1,2.222713852E1,2.385363117E1
5.172718593E0,-7.521391392E0,-6.633259058E-1,1.482023621E1,1.663282090E1
5.177718593E0,-6.406054020E0,-1.400671601E0,8.578701019E0,1.079784794E1
5.182718593E0,-5.208972454E0,-1.568872452E0,3.841299057E0,6.659604586E0
5.187718593E0,-3.873062134E0,-1.462680936E0,4.511423111E-1,4.164561825E0
5.192718593E0,-2.572603703E0,-1.235950708E0,-1.834140778E0,3.392629711E0
5.197718593E0,-1.471411824E0,-9.671555758E-1,-3.365865707E0,3.798617462E0
5.202718593E0,-5.439143181E-1,-7.579145432E-1,-4.515895844E0,4.611246308E0
5.207718593E0,2.113204002E-1,-5.911347270E-1,-5.388456345E0,5.424901691E0
5.212718593E0,8.029636145E-1,-4.802952409E-1,-6.050233364E0,6.122153040E0
5.217718593E0,1.210023761E0,-4.304656386E-1,-6.586559296E0,6.710605153E0
5.222718593E0,1.451002121E0,-4.202688336E-1,-7.054461479E0,7.214392546E0
5.227718593E0,1.557327747E0,-4.371033311E-1,-7.431975365E0,7.605957327E0
5.232718593E0,1.614922762E0,-4.672788382E-1,-7.667981625E0,7.850112562E0
5.237718593E0,1.573504686E0,-4.624087811E-1,-7.633568764E0,7.807759663E0
5.242718593E0,1.377022743E0,-2.946673036E-1,-7.200920105E0,7.337320411E0
5.247718593E0,1.153673887E0,-2.057129145E-2,-6.297411919E0,6.402248315E0
5.252718593E0,8.730859756E-1,2.078675628E-1,-4.780198097E0,4.863720993E0
5.257718593E0,4.456162453E-1,3.243604898E-1,-2.701671600E0,2.757319895E0
5.262718593E0,-3.668045998E-2,3.256815672E-1,-3.959379196E-1,5.139851900E-1
5.267718593E0,-3.670339584E-1,2.747608721E-1,2.069377899E0,2.119559471E0
5.273968593E0,-5.234022141E-1,1.756661832E-1,4.160823822E0,4.197292385E0
5.278968593E0,-8.125138879E-1,6.162980199E-2,6.037650108E0,6.092388356E0
5.283968593E0,-1.180852294E0,1.300008297E-1,6.509509087E0,6.617025080E0
5.288968593E0,-1.668719411E0,2.838680148E-1,7.005085945E0,7.206693737E0
5.293968593E0,-2.167031765E0,4.737264514E-1,7.455095291E0,7.778103189E0
5.298968593E0,-2.558530807E0,6.506457329E-1,7.187396049E0,7.656897657E0
5.303968593E0,-2.602037907E0,6.208860874E-1,5.866751671E0,6.447858247E0
5.308968593E0,-2.249803543E0,4.164255857E-1,4.170832634E0,4.757191515E0
5.313968593E0,-1.659488320E0,1.941663921E-1,2.782458305E0,3.245562554E0
5.318968593E0,-9.981579781E-1,2.319651842E-2,1.657298088E0,1.934811200E0
5.323968593E0,-4.412980080E-1,-7.089677453E-2,6.607513428E-1,7.977233991E-1
5.328968593E0,-4.506886005E-2,-9.391894937E-2,-1.948947906E-1,2.209885758E-1
5.333968593E0,1.845865250E-1,-8.632981777E-2,-8.968811035E-1,9.197394938E-1
5.338968593E0,2.731449604E-1,-4.665198922E-2,-1.449329376E0,1.475581315E0
5.343968593E0,2.266252041E-1,-4.867246747E-2,-1.814533234E0,1.829278231E0
5.348968593E0,1.010814905E-1,-7.082334161E-2,-1.905722141E0,1.909714715E0
5.353968593E0,-6.182789803E-2,-6.333276629E-2,-1.566052437E0,1.568551549E0
5.358968593E0,-2.144668102E-1,-4.344612360E-2,-8.104095459E-1,8.394326718E-1
5.363968593E0,-3.740566969E-1,-3.798684478E-2,7.014846802E-2,3.824685875E-1
5.368968593E0,-5.498450398E-1,-3.004699945E-3,8.744268417E-1,1.032937993E0
5.373968593E0,-7.275220156E-1,4.116582870E-2,1.540930748E0,1.704538201E0
5.378968593E0,-8.491504192E-1,8.554565907E-2,2.022156715E0,2.194878647E0
5.383968593E0,-8.906696439E-1,1.107061505E-1,2.323443413E0,2.490770475E0
5.388968593E0,-8.440524340E-1,1.370705664E-1,2.451805115E0,2.596644214E0
5.393968593E0,-6.948890090E-1,1.300061643E-1,2.331641197E0,2.436457061E0
5.398968593E0,-4.749840498E-1,6.487655640E-2,1.972334862E0,2.029759499E0
5.403968593E0,-2.967113256E-1,9.989559650E-3,1.522479057E0,1.551154371E0
5.408968593E0,-1.978598833E-1,2.810150385E-3,1.086971283E0,1.104836187E0
5.413968593E0,-1.483333111E-1,5.547252297E-2,7.111625671E-1,7.285823007E-1
5.418968593E0,-1.640404463E-1,9.123346210E-2,4.512481689E-1,4.887307261E-1
5.423968593E0,-2.106461525E-1,1.062351465E-1,3.291912079E-1,4.049994559E-1
5.428968593E0,-3.195275664E-1,1.250466406E-1,3.550367355E-1,4.937465054E-1
5.433968593E0,-4.394648075E-1,1.530253291E-1,4.911212921E-1,6.765694288E-1
5.438968593E0,-5.465703011E-1,1.833764315E-1,6.637191772E-1,8.791411467E-1
5.443968593E0,-6.116718650E-1,1.902432442E-1,8.445415497E-1,1.059993109E0
5.448968593E0,-6.478566527E-1,1.988955140E-1,9.734849930E-1,1.186149527E0
5.453968593E0,-6.106055975E-1,2.011159360E-1,1.046636581E0,1.228305723E0
5.458968593E0,-5.340015292E-1,1.514699161E-1,1.086106300E0,1.219724421E0
5.463968593E0,-4.703023434E-1,5.175152421E-2,1.089353561E0,1.187667334E0
5.468968593E0,-4.350439310E-1,-3.597351909E-2,1.107769966E0,1.190676956E0
5.473968593E0,-3.993667364E-1,-1.294349730E-1,1.099061966E0,1.176513666E0
5.478968593E0,-4.073342085E-1,-2.349658608E-1,1.035745621E0,1.137496859E0
5.483968593E0,-4.620166421E-1,-2.455464602E-1,9.444303513E-1,1.079676401E0
5.488968593E0,-5.752842426E-1,-1.872422993E-1,8.526983261E-1,1.045517132E0
5.493968593E0,-6.361552477E-1,-1.549612880E-1,7.965717316E-1,1.031131914E0
5.498968593E0,-6.376834512E-1,-1.100881696E-1,8.263940811E-1,1.049612674E0
5.503968593E0,-6.194239259E-1,-2.790519595E-2,9.113845825E-1,1.102309647E0
5.508968593E0,-5.719565749E-1,2.973318100E-2,9.986019135E-1,1.151183811E0
5.513968593E0,-5.238397121E-1,-3.765523434E-3,1.059842110E0,1.182238352E0
5.518968593E0,-4.800056815E-1,-2.233824134E-2,1.106470108E0,1.206308647E0
5.523968593E0,-4.628149271E-1,7.012748718E-2,1.131036758E0,1.224075026E0
5.528968593E0,-4.415502548E-1,1.608410776E-1,1.086336136E0,1.183622693E0
5.533968593E0,-4.089448452E-1,1.906132698E-1,9.517211914E-1,1.053253308E0
5.538968593E0,-4.072892666E-1,2.312197536E-1,8.234262466E-1,9.473003245E-1
5.543968593E0,-4.069669247E-1,2.984816134E-1,7.330656052E-1,8.899991757E-1
5.548968593E0,-4.238168597E-1,3.366346359E-1,6.990861893E-1,8.841182663E-1
5.553968593E0,-4.421453476E-1,3.266825378E-1,7.164831161E-1,9.030847383E-1
5.558968593E0,-4.432679415E-1,2.783048153E-1,7.944793701E-1,9.513871492E-1
5.563968593E0,-4.196142554E-1,2.295198739E-1,8.903789520E-1,1.010707759E0
5.568968593E0,-3.819350600E-1,1.803923249E-1,9.914560318E-1,1.077683091E0
5.573968593E0,-3.714014292E-1,1.487208903E-1,1.052009583E0,1.125513699E0
5.578968593E0,-3.835613132E-1,1.485366523E-1,1.067932129E0,1.144404408E0
5.583968593E0,-3.931561112E-1,1.364794970E-1,1.025503159E0,1.106731724E0
5.588968593E0,-4.540122151E-1,7.049569488E-2,9.738607407E-1,1.076801503E0
5.593968593E0,-5.166057944E-1,2.110147476E-2,9.941825867E-1,1.120591734E0
5.598968593E0,-5.518872142E-1,-2.702057362E-3,1.062767982E0,1.197523521E0
5.603968593E0,-5.671782494E-1,-4.487979412E-2,1.093995094E0,1.233097980E0
5.608968593E0,-5.914299488E-1,-1.337272525E-1,1.060887337E0,1.221946932E0
5.613968593E0,-5.908557177E-1,-1.808610260E-1,9.962682724E-1,1.172335984E0
5.618968593E0,-5.975154042E-1,-1.795302033E-1,9.174003601E-1,1.109449942E0
5.623968593E0,-6.074488759E-1,-1.145426333E-1,8.419141769E-1,1.044477684E0
5.628968593E0,-6.169600487E-1,-5.328303576E-2,7.876148224E-1,1.001906129E0
5.633968593E0,-6.107913256E-1,-5.217078328E-2,7.689504623E-1,9.833985192E-1
5.638968593E0,-5.928456187E-1,-1.915982366E-2,8.255405426E-1,1.016538348E0
5.643968593E0,-5.675511956E-1,2.595040202E-2,8.820724487E-1,1.049209030E0
5.648968593E0,-5.429885387E-1,6.359755993E-3,9.037990570E-1,1.054385952E0
5.653968593E0,-5.120876431E-1,-2.287477255E-2,8.982248306E-1,1.034197687E0
5.658968593E0,-4.848945141E-1,-1.661291718E-2,8.968019485E-1,1.019633470E0
5.663968593E0,-4.636442065E-1,1.649665833E-2,8.843317032E-1,9.986394000E-1
5.668968593E0,-4.124039412E-1,4.937526584E-2,8.455314636E-1,9.420394809E-1
5.673968593E0,-3.763975501E-1,8.919200301E-2,8.027172089E-1,8.910584978E-1
5.678968593E0,-3.534287214E-1,1.469321549E-1,7.829999924E-1,8.715445527E-1
5.683968593E0,-3.444663286E-1,2.075530440E-1,7.647075653E-1,8.640098252E-1
5.688968593E0,-3.558869958E-1,2.458522469E-1,7.740383148E-1,8.866984797E-1
5.693968593E0,-3.780270815E-1,2.171128690E-1,7.862854004E-1,8.990479426E-1
5.698968593E0,-4.306420088E-1,1.585142016E-1,8.419790268E-1,9.589097838E-1
5.703968593E0,-4.747524261E-1,6.299269199E-2,9.240112305E-1,1.040747183E0
5.708968593E0,-5.409150124E-1,-2.919122577E-2,1.023540497E0,1.158048499E0
5.713968593E0,-5.996152759E-1,-9.800362587E-2,1.103066444E0,1.259324728E0
5.718968593E0,-6.311559677E-1,-1.763671041E-1,1.145332336E0,1.319564084E0
5.723968593E0,-6.266321540E-1,-2.402508855E-1,1.134523392E0,1.318154646E0
5.728968593E0,-5.918527246E-1,-2.997105122E-1,1.095730782E0,1.280914511E0
5.733968593E0,-5.601347089E-1,-3.362931609E-1,1.027139664E0,1.217316668E0
5.738968593E0,-5.241636634E-1,-3.375790715E-1,9.493207932E-1,1.135745193E0
5.743968593E0,-4.987354279E-1,-3.164368570E-1,8.788890839E-1,1.058921779E0
5.748968593E0,-4.569873214E-1,-2.642851770E-1,8.167972565E-1,9.725439964E-1
5.753968593E0,-3.963155746E-1,-1.775395572E-1,7.883338928E-1,9.000314748E-1
5.758968593E0,-3.025072217E-1,-4.505991936E-2,7.629318237E-1,8.219525431E-1
5.763968593E0,-2.268929482E-1,9.879237413E-2,7.458744049E-1,7.858555662E-1
5.768968593E0,-1.647160053E-1,2.293044180E-1,6.920862198E-1,7.474591722E-1
5.773968593E0,-1.321015358E-1,3.071610332E-1,6.180505753E-1,7.026985340E-1
5.778968593E0,-1.208727360E-1,3.653203547E-1,5.673589706E-1,6.855402114E-1
5.783968593E0,-1.434704065E-1,4.071476161E-1,5.372905731E-1,6.892271751E-1
5.788968593E0,-2.013323307E-1,4.538925290E-1,5.775947571E-1,7.616881505E-1
5.793968593E0,-2.936619520E-1,4.957494140E-1,6.506443024E-1,8.691046149E-1
5.798968593E0,-3.821333051E-1,5.029438138E-1,7.665462494E-1,9.932630544E-1
5.803968593E0,-4.622225165E-1,4.692665040E-1,8.987627029E-1,1.114286814E0
5.808968593E0,-5.417437553E-1,4.076914787E-1,1.044574738E0,1.245325267E0
5.813968593E0,-5.983957648E-1,3.359813690E-1,1.160268784E0,1.348029904E0
5.818968593E0,-6.482795477E-1,2.882505655E-1,1.235519409E0,1.424732596E0
5.823968593E0,-6.932247281E-1,2.422406822E-1,1.233161926E0,1.435245417E0
5.828968593E0,-7.119095922E-1,2.238051146E-1,1.180166245E0,1.396315280E0
5.833968593E0,-7.118160129E-1,1.980973631E-1,1.060256958E0,1.292311657E0
5.838968593E0,-6.635195613E-1,1.727231741E-1,9.418754578E-1,1.164998232E0
5.843968593E0,-5.961075425E-1,1.411787719E-1,8.412885666E-1,1.040693086E0
5.848968593E0,-5.164526701E-1,1.098932922E-1,7.789230347E-1,9.410212485E-1
5.853968593E0,-4.191451669E-1,4.408204556E-2,7.661094666E-1,8.743852769E-1
5.858968593E0,-3.368939757E-1,-6.832957268E-2,7.922487259E-1,8.636113275E-1
5.863968593E0,-2.577868700E-1,-1.803194880E-1,8.601732254E-1,9.158969188E-1
5.868968593E0,-2.239286304E-1,-2.563805878E-1,9.067573547E-1,9.685473337E-1
5.873968593E0,-2.260367274E-1,-2.652377486E-1,9.260644913E-1,9.894640506E-1
5.878968593E0,-2.580017447E-1,-2.414329052E-1,8.753166199E-1,9.439459376E-1
5.883968593E0,-2.960852981E-1,-2.203152180E-1,7.757234573E-1,8.590414316E-1
5.888968593E0,-3.232449889E-1,-2.051847875E-1,6.943864822E-1,7.929443276E-1
5.893968593E0,-3.412268758E-1,-1.621314287E-1,6.592054367E-1,7.597856202E-1
5.898968593E0,-3.523668051E-1,-1.270915270E-1,6.207542419E-1,7.250175518E-1
5.903968593E0,-3.547021151E-1,-1.105989218E-1,5.991334915E-1,7.049869875E-1
5.908968593E0,-3.811404705E-1,-1.374208331E-1,5.832204819E-1,7.101398976E-1
5.913968593E0,-3.928416967E-1,-1.684005260E-1,5.636186600E-1,7.073537515E-1
5.918968593E0,-3.939545155E-1,-2.084281147E-1,5.715684891E-1,7.247985768E-1
5.923968593E0,-4.049784541E-1,-2.344164252E-1,5.757055283E-1,7.418864226E-1
5.928968593E0,-4.324691892E-1,-2.306083143E-1,6.154155731E-1,7.867312895E-1
5.933968593E0,-4.368836880E-1,-1.971737742E-1,6.234893799E-1,7.864374488E-1
5.938968593E0,-4.250949025E-1,-1.444436908E-1,6.269054413E-1,7.710901946E-1
5.943968593E0,-3.970674276E-1,-7.253718376E-2,6.367034912E-1,7.538670445E-1
5.948968593E0,-3.510993123E-1,8.887082338E-3,6.302938461E-1,7.215400473E-1
5.953968593E0,-3.007594347E-1,8.957731724E-2,5.982847214E-1,6.755922891E-1
5.958968593E0,-2.452730536E-1,1.932390034E-1,5.857744217E-1,6.638010669E-1
5.963968593E0,-1.949365735E-1,2.845481038E-1,5.805149078E-1,6.752521376E-1
5.968968593E0,-1.460871696E-1,3.409937024E-1,5.680398941E-1,6.784449038E-1
5.973968593E0,-1.096546650E-1,3.774157166E-1,5.870838165E-1,7.064942861E-1
5.978968593E0,-9.415352345E-2,4.272763729E-1,6.278867722E-1,7.652919596E-1
5.983968593E0,-9.006130695E-2,4.346643388E-1,6.704320908E-1,8.040667353E-1
5.988968593E0,-9.561312199E-2,4.241537452E-1,7.284135818E-1,8.483128048E-1
5.993968593E0,-1.143100262E-1,4.301733077E-1,7.846279144E-1,9.020847082E-1
5.998968593E0,-1.659827828E-1,4.585941434E-1,8.333940506E-1,9.656109548E-1
6.003968593E0,-2.215282917E-1,4.915819764E-1,8.354358673E-1,9.943242489E-1
6.008968593E0,-2.743037343E-1,4.861638546E-1,8.132114410E-1,9.863623472E-1
6.013968593E0,-3.483530283E-1,5.080190897E-1,7.820844650E-1,9.955346997E-1
6.018968593E0,-3.974020481E-1,5.074070692E-1,7.147779465E-1,9.624436786E-1
6.023968593E0,-4.465126395E-1,4.266102314E-1,6.033945084E-1,8.633972200E-1
6.028968593E0,-4.520977139E-1,3.566332459E-1,4.740562439E-1,7.458612052E-1
6.033968593E0,-4.215437174E-1,2.671368420E-1,3.019533157E-1,5.832983824E-1
6.038968593E0,-3.895222545E-1,1.808495671E-1,1.709156036E-1,4.622188834E-1
6.043968593E0,-4.172241688E-1,1.808175147E-1,1.027736664E-1,4.661903121E-1
6.048968593E0,-4.573273063E-1,1.912012994E-1,7.320785522E-2,5.010644590E-1
6.053968593E0,-5.134292245E-1,1.910601854E-1,1.491422653E-1,5.677648971E-1
6.058968593E0,-5.951919556E-1,1.837721765E-1,3.176031113E-1,6.992119944E-1
6.063968593E0,-6.567476988E-1,1.136853099E-1,6.084117889E-1,9.024448983E-1
6.068968593E0,-6.358555555E-1,-1.797378063E-2,9.304380417E-1,1.127098174E0
6.073968593E0,-4.545150399E-1,-2.836417854E-1,9.550571442E-1,1.095066543E0
6.078968593E0,-3.166061640E-1,-4.439434111E-1,1.007176399E0,1.145307607E0
6.083968593E0,-2.980965972E-1,-4.209077954E-1,1.103345871E0,1.217947891E0
6.088968593E0,-2.605012655E-1,-3.948768973E-1,1.116413116E0,1.212504400E0
6.093968593E0,-1.380856633E-1,-3.728363514E-1,9.688844681E-1,1.047287787E0
6.098968593E0,3.809237480E-2,-4.193713069E-1,7.587461472E-1,8.677666955E-1
6.103968593E0,1.444483995E-1,-4.362789392E-1,6.806697845E-1,8.212892356E-1
6.108968593E0,-1.785596609E-1,-1.550570726E-1,1.134282112E0,1.158672585E0
6.113968593E0,-1.018373966E0,4.514497817E-1,2.368951797E0,2.617790110E0
6.118968593E0,-1.346090555E0,8.472975492E-1,2.566600800E0,3.019488795E0
6.123968593E0,-1.036334991E0,7.794537544E-1,1.958415985E0,2.348814923E0
6.128968593E0,-5.360087156E-1,3.303054571E-1,1.142899513E0,1.304847246E0
6.133968593E0,-1.240048409E-1,-5.040693283E-2,5.768842697E-1,5.922107058E-1
6.138968593E0,1.630821228E-1,-2.278650105E-1,2.434701920E-1,3.712088040E-1
6.143968593E0,3.954024315E-1,-2.798767984E-1,1.327323914E-2,4.846135409E-1
6.148968593E0,5.652589798E-1,-2.777970731E-1,-3.571233749E-1,7.240345524E-1
6.153968593E0,5.528917313E-1,-1.420968175E-1,-4.983863831E-1,7.578058847E-1
6.158968593E0,4.353623390E-1,4.989960790E-2,-6.414880753E-1,7.768766233E-1
6.163968593E0,5.071294308E-2,3.869957626E-1,-4.117670059E-1,5.673531440E-1
6.168968593E0,-4.939280748E-1,7.866984606E-1,1.696844101E-1,9.442733767E-1
6.173968593E0,-9.629646540E-1,1.229974389E0,1.199171066E0,1.969301696E0
6.178968593E0,-1.247137785E0,1.792519808E0,2.450002670E0,3.281919103E0
6.183968593E0,-1.318534136E0,2.271034479E0,3.449602127E0,4.335422091E0
6.188968593E0,-1.413983583E0,2.655856848E0,4.279431343E0,5.231295995E0
6.193968593E0,-1.465612292E0,2.997662306E0,4.809469223E0,5.853630745E0
6.198968593E0,-1.147330761E0,2.934668779E0,4.858005524E0,5.790411591E0
6.203968593E0,-7.785043120E-1,2.531508923E0,4.645117760E0,5.347123095E0
6.208968593E0,-3.471813202E-1,1.884856462E0,4.122980118E0,4.546667329E0
6.213968593E0,9.856069088E-2,1.106434703E0,3.312391281E0,3.493686872E0
6.218968593E0,4.368937016E-1,3.409198225E-1,2.273004532E0,2.339583731E0
6.223968593E0,6.372134686E-1,-2.774313688E-1,1.009197235E0,1.225352287E0
6.228968593E0,6.423342228E-1,-7.414317131E-1,-3.273286819E-1,1.034146172E0
6.233968593E0,4.905831814E-1,-1.018481255E0,-1.633105755E0,1.986205007E0
6.238968593E0,2.478563786E-1,-1.101728916E0,-2.794297695E0,3.013857826E0
6.243968593E0,-1.134419441E-1,-9.760065675E-1,-3.625957966E0,3.756731167E0
6.248968593E0,-9.857630730E-2,-1.214090466E0,-4.403358936E0,4.568730991E0
6.253968593E0,-3.155779839E-2,-1.528692722E0,-5.014051437E0,5.242004307E0
6.258968593E0,-1.642549038E-1,-1.609743357E0,-5.241744041E0,5.485812059E0
6.263968593E0,-3.318960667E-1,-1.581059933E0,-5.341370583E0,5.580335582E0
6.268968593E0,-4.782168865E-1,-1.485291839E0,-5.191504478E0,5.420931837E0
6.273968593E0,-7.497264147E-1,-1.313835621E0,-4.633561611E0,4.874232959E0
6.278968593E0,-2.088245869E0,-7.383850217E-1,-9.164791107E-1,2.397064290E0
6.283968593E0,-1.182761431E0,-5.964929461E-1,2.515459061E-1,1.348333705E0
6.288968593E0,-3.146505356E-1,-2.898756266E-1,1.442192078E0,1.504310748E0
6.293968593E0,-6.438010931E-1,3.693165481E-1,3.875301361E0,3.945736332E0
6.298968593E0,-9.272844791E-1,9.180987477E-1,5.168673515E0,5.330848687E0
6.303968593E0,-1.518117666E0,1.262800455E0,6.095163345E0,6.407055677E0
6.308968593E0,-2.026618958E0,1.126618981E0,6.161826134E0,6.583658256E0
6.313968593E0,-2.137697697E0,6.273040175E-1,5.380519867E0,5.823508892E0
6.318968593E0,-1.845276713E0,1.399268508E-1,4.029661179E0,4.434275013E0
6.323968593E0,-1.274433136E0,-3.517825007E-1,2.416091919E0,2.754166100E0
6.328968593E0,-3.190658092E-1,-1.109961390E0,9.661426544E-1,1.505738659E0
6.333968593E0,2.511627674E-1,-1.590507269E0,9.259414673E-2,1.612876246E0
6.338968593E0,4.613788128E-1,-1.762378454E0,-4.736366272E-1,1.882333626E0
6.343968593E0,3.327019215E-1,-1.611183643E0,-5.929031372E-1,1.748753108E0
6.348968593E0,-6.579136848E-2,-1.390728951E0,-1.007632256E0,1.718655952E0
6.353968593E0,-4.206321239E-1,-6.986293197E-1,-1.372902870E0,1.596833304E0
6.358968593E0,-4.167459011E-1,-3.775302172E-1,-1.442633629E0,1.548353318E0
6.363968593E0,5.483579636E-2,-4.787711501E-1,-1.580764771E0,1.652587679E0
6.368968593E0,9.141159058E-1,-9.523364902E-1,-1.757461071E0,2.198004116E0
6.373968593E0,1.971594810E0,-1.475886106E0,-1.358205318E0,2.812498459E0
6.378968593E0,2.618366480E0,-1.690527916E0,-5.154800415E-1,3.159026326E0
6.383968593E0,2.444142103E0,-1.424002886E0,3.920221329E-1,2.855747922E0
6.388968593E0,1.826511621E0,-9.836764336E-1,1.184951782E0,2.389115894E0
6.393968593E0,1.302498579E0,-8.203620911E-1,1.760575294E0,2.338615376E0
6.398968593E0,9.726548195E-1,-9.085739851E-1,2.209858894E0,2.579736502E0
6.403968593E0,7.496104240E-1,-9.073103070E-1,2.604814529E0,2.858353812E0
6.408968593E0,7.265791893E-1,-7.661533952E-1,2.727981567E0,2.925199442E0
6.413968593E0,1.100099325E0,-7.643601298E-1,2.657897949E0,2.976388154E0
6.418968593E0,1.557132721E0,-6.056177020E-1,2.376794815E0,2.905269128E0
6.423968593E0,1.733923197E0,-2.263052464E-1,2.155193329E0,2.775348987E0
6.428968593E0,1.975761175E0,-1.977974176E-1,2.807285309E0,3.438547200E0
6.433968593E0,1.767057896E0,-1.119254231E-1,3.066941261E0,3.541348558E0
6.438968593E0,1.232991457E0,1.591016054E-1,3.342879295E0,3.566570234E0
6.443968593E0,9.696619511E-1,6.976836920E-2,3.676872253E0,3.803222514E0
6.448968593E0,8.847398758E-1,-2.967629433E-1,4.048208237E0,4.154373938E0
6.453968593E0,6.550469398E-1,-5.176710486E-1,4.344718933E0,4.424212067E0
6.458968593E0,2.945609093E-1,-6.258141994E-1,4.466899872E0,4.520133185E0
6.463968593E0,9.423303604E-2,-9.467830658E-1,4.610134125E0,4.707293775E0
6.468968593E0,1.884579659E-1,-1.457637548E0,4.447167397E0,4.683750792E0
6.473968593E0,4.407014847E-1,-1.954225540E0,4.028741837E0,4.499330622E0
6.478968593E0,6.682710648E-1,-2.199922085E0,3.518141747E0,4.202804390E0
6.483968593E0,1.071521282E0,-2.499037266E0,3.246435165E0,4.234700272E0
6.488968593E0,1.400178432E0,-2.708369732E0,2.802094460E0,4.140953949E0
6.493968593E0,1.213222980E0,-2.544088364E0,2.421440125E0,3.715867043E0
6.498968593E0,8.348717690E-1,-2.088306665E0,2.098109245E0,3.075727232E0
6.503968593E0,6.856188774E-1,-1.673244953E0,1.734742165E0,2.505823676E0
6.508968593E0,4.615926743E-1,-1.300789118E0,1.358651161E0,1.936763564E0
6.513968593E0,2.203474045E-1,-1.020127296E0,1.197454453E0,1.588429994E0
6.518968593E0,9.036874771E-2,-8.906923532E-1,1.054327011E0,1.383150326E0
6.523968593E0,1.885008812E-1,-9.913789034E-1,9.460363388E-1,1.383238760E0
6.528968593E0,6.838574409E-1,-1.423481226E0,1.831285477E0,2.418174166E0
6.533968593E0,8.389363289E-1,-1.472333908E0,2.931991577E0,3.386466582E0
6.538968593E0,4.570040703E-1,-9.369120598E-1,3.325541496E0,3.485094428E0
6.543968593E0,3.177928925E-1,-5.755685568E-1,3.745259285E0,3.802530552E0
6.548968593E0,4.536972046E-1,-5.596129894E-1,4.269099236E0,4.329459104E0
6.553968593E0,7.089500427E-1,-6.874337792E-1,4.703039169E0,4.805595987E0
6.558968593E0,9.614357948E-1,-7.646648884E-1,4.996247292E0,5.145051815E0
6.563968593E0,1.117714882E0,-8.717908859E-1,5.318250656E0,5.503916419E0
6.568968593E0,1.130492210E0,-8.883987665E-1,5.759485245E0,5.936239154E0
6.573968593E0,1.085628986E0,-9.053114653E-1,6.079017639E0,6.241204579E0
6.578968593E0,1.059944153E0,-9.796547890E-1,6.264100075E0,6.428231083E0
6.583968593E0,9.535207748E-1,-1.094603062E0,6.292377472E0,6.457659946E0
6.588968593E0,6.842980385E-1,-1.221329689E0,6.156905174E0,6.314062982E0
6.593968593E0,4.342365265E-1,-1.396663308E0,5.975328445E0,6.151729821E0
6.598968593E0,2.044048309E-1,-1.488710046E0,5.717473030E0,5.911644169E0
6.603968593E0,5.243968964E-2,-1.611030817E0,5.252078056E0,5.493859675E0
6.608968593E0,6.293153763E-2,-1.921211839E0,4.730859756E0,5.106471320E0
6.613968593E0,1.722440720E-1,-2.268919230E0,4.298797607E0,4.863879456E0
6.618968593E0,1.440305710E-1,-2.352747917E0,3.934288979E0,4.586370824E0
6.623968593E0,3.302097321E-3,-2.239572763E0,3.566824913E0,4.211643032E0
6.628968593E0,-9.811306000E-2,-2.127223253E0,3.312523842E0,3.937958754E0
6.633968593E0,-1.527428627E-1,-2.120125055E0,3.222370148E0,3.860301802E0
6.638968593E0,-1.863136292E-1,-2.173343897E0,3.173778534E0,3.851104601E0
6.643968593E0,-2.152924538E-1,-2.212842703E0,3.105085373E0,3.818976151E0
6.648968593E0,-2.264301777E-1,-2.262118578E0,3.072928429E0,3.822478282E0
6.653968593E0,-2.304706573E-1,-2.313930750E0,3.077705383E0,3.857416579E0
6.658968593E0,-2.675755024E-1,-2.310206652E0,3.045409203E0,3.831862293E0
6.663968593E0,-3.532748222E-1,-2.269113302E0,3.010811806E0,3.786643105E0
6.668968593E0,-4.142842293E-1,-2.242730141E0,2.969783783E0,3.744474012E0
6.673968593E0,-4.142515659E-1,-2.290001154E0,2.903892517E0,3.721330595E0
6.678968593E0,-4.011642933E-1,-2.356813431E0,2.735888481E0,3.633261361E0
6.683968593E0,-4.271807671E-1,-2.339387178E0,2.543077469E0,3.481732154E0
6.688968593E0,-3.815743923E-1,-2.318766594E0,2.342174530E0,3.317839517E0
6.693968593E0,-3.038325310E-1,-2.254203320E0,2.133767128E0,3.118767219E0
6.698968593E0,-2.328944206E-1,-2.164411068E0,2.010606766E0,2.963351928E0
6.703968593E0,-2.419404984E-1,-2.018701792E0,1.943817139E0,2.812848591E0
6.708968593E0,-3.006627560E-1,-1.819981098E0,1.929133415E0,2.669135632E0
6.713968593E0,-2.917544842E-1,-1.716297388E0,1.936400414E0,2.603928564E0
6.718968593E0,-2.220785618E-1,-1.661811113E0,1.918587685E0,2.547923423E0
6.723968593E0,-1.587789059E-1,-1.569681168E0,1.850691795E0,2.431906624E0
6.728968593E0,-7.606506348E-2,-1.454159498E0,1.710067749E0,2.246040393E0
6.733968593E0,2.751445770E-2,-1.326175570E0,1.515411377E0,2.013943974E0
6.738968593E0,1.123657227E-1,-1.211228609E0,1.262019157E0,1.752824336E0
6.743968593E0,1.669218540E-1,-1.099715471E0,1.021920204E0,1.510482680E0
6.748968593E0,1.897289753E-1,-9.373241663E-1,8.215456009E-1,1.260758046E0
6.753968593E0,1.776535511E-1,-7.222901583E-1,6.288948059E-1,9.740495541E-1
6.758968593E0,1.260650158E-1,-4.972088039E-1,4.562492371E-1,6.864927889E-1
6.763968593E0,1.004681587E-1,-3.032316864E-1,4.287271500E-1,5.346496756E-1
6.768968593E0,2.256631851E-3,-9.697264433E-2,4.340009689E-1,4.447084744E-1
6.773968593E0,-1.115367413E-1,-1.218795776E-3,4.220438004E-1,4.365351069E-1
6.778968593E0,-1.539478302E-1,-2.181351185E-2,4.678955078E-1,4.930537191E-1
6.783968593E0,-1.907551289E-1,-4.561996460E-2,5.897064209E-1,6.214679100E-1
6.788968593E0,-2.931826115E-1,1.366817951E-2,7.062845230E-1,7.648403038E-1
6.793968593E0,-3.700861931E-1,5.332720280E-2,7.702360153E-1,8.561957137E-1
6.798968593E0,-3.765985966E-1,-1.393097639E-2,8.125181198E-1,8.956596843E-1
6.803968593E0,-4.184491634E-1,-7.476168871E-2,8.182048798E-1,9.220348354E-1
6.808968593E0,-4.702007771E-1,-5.874174833E-2,7.844400406E-1,9.164526944E-1
6.813968593E0,-4.676287174E-1,-1.086339951E-1,7.986631393E-1,9.318480415E-1
6.818968593E0,-4.220864773E-1,-1.748727560E-1,8.092384338E-1,9.293031356E-1
6.823968593E0,-3.644237518E-1,-1.720271707E-1,8.045492172E-1,8.998319072E-1
6.828968593E0,-3.051679134E-1,-1.543876529E-1,8.183212280E-1,8.869118530E-1
6.833968593E0,-1.595344543E-1,-1.972311735E-1,8.520145416E-1,8.889770284E-1
6.838968593E0,-3.840589523E-2,-1.937683225E-1,9.459457397E-1,9.663511360E-1
6.843968593E0,2.564287186E-2,-1.665499806E-1,1.084759712E0,1.097770507E0
6.848968593E0,1.181259155E-1,-2.275233269E-1,1.306711197E0,1.331621098E0
6.853968593E0,6.544208527E-2,-2.437080741E-1,1.493530273E0,1.514697650E0
6.858968593E0,-1.408600807E-2,-2.874175906E-1,1.656575203E0,1.681382969E0
6.863968593E0,5.819082260E-3,-3.631227016E-1,1.832756042E0,1.868391466E0
6.868968593E0,2.293872833E-2,-3.773381710E-1,1.949413300E0,1.985729713E0
6.873968593E0,-6.357049942E-2,-2.891142368E-1,1.933376312E0,1.955907006E0
6.878968593E0,-1.561310291E-1,-1.957851648E-1,1.799503326E0,1.816843678E0
6.883968593E0,-1.721110344E-1,-2.100086212E-1,1.578908920E0,1.602085893E0
6.888968593E0,-1.590476036E-1,-2.847169638E-1,1.252238274E0,1.294009499E0
6.893968593E0,-1.742284298E-1,-3.484205008E-1,8.272142410E-1,9.143499284E-1
6.898968593E0,-2.602996826E-1,-4.005227089E-1,3.115272522E-1,5.702837837E-1
6.903968593E0,-3.552620411E-1,-4.761205316E-1,-2.199659348E-1,6.334720916E-1
6.908968593E0,-4.995081425E-1,-5.205783844E-1,-7.404327393E-1,1.033804082E0
6.913968593E0,-6.302561760E-1,-5.799497366E-1,-1.163004875E0,1.444349294E0
6.918968593E0,-7.543920279E-1,-6.075508595E-1,-1.394021034E0,1.697504057E0
6.923968593E0,-9.378226995E-1,-5.208834410E-1,-1.491723061E0,1.837408138E0
6.928968593E0,-1.114328980E0,-3.793025017E-1,-1.477456093E0,1.889041019E0
6.933968593E0,-1.233580828E0,-2.118219733E-1,-1.378220558E0,1.861741688E0
6.938968593E0,-1.291708469E0,-2.537858486E-2,-1.255047798E0,1.801193998E0
6.943968593E0,-1.284583449E0,1.216521859E-1,-1.087179184E0,1.687279607E0
6.948968593E0,-1.156567931E0,1.235094666E-1,-8.097162247E-1,1.417231220E0
6.953968593E0,-9.946808219E-1,5.713576078E-2,-4.828739166E-1,1.107168303E0
6.958968593E0,-8.780972958E-1,6.515055895E-2,-2.388134003E-1,9.123219258E-1
6.963968593E0,-8.102384210E-1,1.206305027E-1,-1.002635956E-1,8.252822581E-1
6.968968593E0,-7.273411751E-1,1.764929295E-1,-5.286121368E-2,7.503127661E-1
6.973968593E0,-5.910099745E-1,1.550194621E-1,-9.271240234E-2,6.179962889E-1
6.978968593E0,-4.375854731E-1,5.292022228E-2,-1.825685501E-1,4.770879077E-1
6.983968593E0,-3.512908220E-1,2.148318291E-2,-3.375396729E-1,4.876472081E-1
6.988968593E0,-3.427084088E-1,1.470424533E-1,-5.792951584E-1,6.889509540E-1
6.993968593E0,-2.911746502E-1,2.371420860E-1,-9.563388824E-1,1.027425474E0
6.998968593E0,-1.978739500E-1,2.294124961E-1,-1.431369781E0,1.463080191E0
7.003968593E0,-6.389272213E-2,1.602107286E-1,-1.914176464E0,1.921931657E0
7.008968593E0,1.099161506E-1,5.318927765E-2,-2.333637714E0,2.336830255E0
7.013968593E0,2.580270171E-1,-4.462730885E-2,-2.712487221E0,2.725097514E0
7.018968593E0,3.432493210E-1,-7.826352119E-2,-2.985107899E0,3.005796807E0
7.023968593E0,5.318266153E-1,-9.199881554E-2,-3.039511681E0,3.087059213E0
7.028968593E0,6.299957037E-1,6.737065315E-2,-2.998947144E0,3.065145569E0
7.033968593E0,6.004702449E-1,3.483452201E-1,-2.924254894E0,3.005524180E0
7.038968593E0,6.889617443E-1,4.700427055E-1,-2.756128311E0,2.879557552E0
7.043968593E0,7.161627412E-1,6.370318532E-1,-2.429189205E0,2.611447654E0
7.048968593E0,7.166156769E-1,8.417292237E-1,-2.129861355E0,2.399657372E0
7.053968593E0,8.302173615E-1,8.313155174E-1,-1.913347244E0,2.245271483E0
7.058968593E0,9.563443661E-1,7.209618092E-1,-1.760225773E0,2.129031528E0
7.063968593E0,1.086856842E0,6.183437705E-1,-1.646265984E0,2.067316740E0
7.068968593E0,1.196928978E0,5.390468240E-1,-1.572775841E0,2.048617656E0
7.073968593E0,1.260981202E0,5.122036338E-1,-1.586239815E0,2.090115524E0
7.078968593E0,1.298524499E0,4.980636239E-1,-1.729279995E0,2.219153566E0
7.083968593E0,1.300591230E0,4.905749559E-1,-1.983719826E0,2.422260449E0
7.088968593E0,1.319854617E0,4.628376961E-1,-2.295477867E0,2.688020383E0
7.093968593E0,1.416636109E0,3.280472755E-1,-2.623935699E0,2.999918572E0
7.098968593E0,1.508923292E0,1.686636209E-1,-2.954270840E0,3.321597976E0
7.103968593E0,1.468987942E0,1.882068515E-1,-3.249166012E0,3.570774029E0
7.108968593E0,1.310037732E0,3.176496625E-1,-3.415303707E0,3.671702545E0
7.113968593E0,1.220285416E0,3.851069212E-1,-3.408462048E0,3.640744068E0
7.118968593E0,1.173629999E0,3.945798278E-1,-3.293943405E0,3.518971977E0
7.123968593E0,1.181618094E0,4.063661098E-1,-3.185280800E0,3.421603208E0
7.128968593E0,1.171818495E0,3.954846859E-1,-3.103950024E0,3.341268093E0
7.133968593E0,1.197976232E0,3.470340371E-1,-2.975889206E0,3.226685023E0
7.138968593E0,1.277530670E0,3.096144199E-1,-2.810986042E0,3.103157784E0
7.143968593E0,1.357793689E0,3.834879398E-1,-2.493407249E0,2.864916476E0
7.148968593E0,1.387570143E0,5.707780123E-1,-2.049530506E0,2.540022389E0
7.153968593E0,1.449874163E0,7.133056521E-1,-1.703281879E0,2.347788151E0
7.158968593E0,1.572871804E0,7.559316158E-1,-1.432673454E0,2.257855520E0
7.163968593E0,1.732102275E0,7.063450813E-1,-1.213838577E0,2.229911603E0
7.168968593E0,1.841603875E0,6.496444345E-1,-1.065574646E0,2.224633015E0
7.173968593E0,1.869785905E0,6.377668977E-1,-9.908790588E-1,2.210132859E0
7.178968593E0,1.852635860E0,6.557605863E-1,-1.029434204E0,2.218561777E0
7.183968593E0,1.800023079E0,6.726574898E-1,-1.190618515E0,2.260558257E0
7.188968593E0,1.742133617E0,6.504427791E-1,-1.474544525E0,2.373265031E0
7.193968593E0,1.680699587E0,5.744647384E-1,-1.809528351E0,2.535577585E0
7.198968593E0,1.591230035E0,4.539593458E-1,-2.068968773E0,2.649287431E0
7.203968593E0,1.527622819E0,3.547674417E-1,-2.197731018E0,2.699909821E0
7.208968593E0,1.903294683E0,3.504874110E-1,-1.454063416E0,2.420676040E0
7.213968593E0,1.906251192E0,6.750780344E-1,-5.915803909E-1,2.107010042E0
7.218968593E0,9.286561012E-1,9.340035915E-1,-1.289148331E0,1.843005231E0
7.223968593E0,7.859340906E-1,7.840643525E-1,-1.434893608E0,1.814213044E0
7.228968593E0,1.370944977E0,7.633664608E-1,-1.082912445E0,1.906546052E0
7.233968593E0,2.452821493E0,8.509529829E-1,-5.643482208E-1,2.656867172E0
7.238968593E0,2.877188921E0,1.019610643E0,-4.306945801E-1,3.082745493E0
7.243968593E0,2.389696598E0,1.155143499E0,-6.415796280E-1,2.730683203E0
7.248968593E0,1.774190664E0,1.132119179E0,-7.457304001E-1,2.232836801E0
7.253968593E0,1.236856818E0,9.925667048E-1,-9.398536682E-1,1.843455551E0
7.258968593E0,7.254484296E-1,7.830882072E-1,-1.241101265E0,1.637020132E0
7.263968593E0,2.632614076E-1,5.347452164E-1,-1.630626678E0,1.736145841E0
7.268968593E0,1.769974828E-2,2.468483746E-1,-2.033321381E0,2.048326936E0
7.273968593E0,-1.860873848E-1,5.271145701E-2,-2.451938629E0,2.459554849E0
7.278968593E0,-4.476200938E-1,-2.106887102E-2,-2.759319782E0,2.795470141E0
7.283968593E0,-7.018491030E-1,-8.848223090E-2,-3.044157505E0,3.125270578E0
7.288968593E0,-7.456764579E-1,-2.175829411E-1,-3.291837215E0,3.382243038E0
7.293968593E0,-7.340266109E-1,-3.431638479E-1,-3.467695236E0,3.561104708E0
7.298968593E0,-7.571341395E-1,-4.143036008E-1,-3.666006088E0,3.766231567E0
7.303968593E0,-6.861729622E-1,-5.089063644E-1,-3.685631752E0,3.783345138E0
7.308968593E0,-4.347556829E-1,-5.950207114E-1,-3.657086372E0,3.730595514E0
7.313968593E0,-1.877900958E-1,-5.607334375E-1,-3.533535957E0,3.582675463E0
7.318968593E0,7.061164081E-2,-3.860003352E-1,-3.287187576E0,3.310526306E0
7.323968593E0,5.734729767E-1,-2.896498442E-1,-3.283531189E0,3.345795175E0
7.328968593E0,1.276450753E0,-3.665476441E-1,-3.364937782E0,3.617525394E0
7.333968593E0,1.975425959E0,-5.333498716E-1,-3.350580215E0,3.925959448E0
7.338968593E0,2.449122667E0,-7.917869687E-1,-3.268624783E0,4.160413010E0
7.343968593E0,2.803573847E0,-1.164788604E0,-2.930468082E0,4.219526275E0
7.348968593E0,3.765368462E0,-2.641214848E0,-1.799572945E0,4.938874194E0
7.353968593E0,6.134885788E0,-5.818342686E0,3.911027908E-1,8.464212700E0
7.358968593E0,6.448112965E0,-6.136319160E0,1.116067886E0,8.970963224E0
7.363968593E0,6.135382175E0,-5.309494495E0,9.255046844E-1,8.166407114E0
7.368968593E0,5.670299530E0,-4.284982204E0,7.428941727E-1,7.145996152E0
7.373968593E0,4.994090557E0,-3.185117722E0,1.800828934E0,6.191033859E0
7.378968593E0,4.660770416E0,-1.943504214E0,1.694903374E0,5.326601820E0
7.383968593E0,4.263001442E0,-5.262174010E-1,7.729473114E-1,4.364348015E0
7.388968593E0,3.182014942E0,6.371787786E-1,-6.275835037E-1,3.305310415E0
7.393968593E0,2.054635763E0,1.455847859E0,-1.350730896E0,2.857533038E0
7.398968593E0,1.223978043E0,2.288378954E0,-1.514279366E0,3.004636830E0
7.403968593E0,2.150136232E-1,2.810058117E0,-1.767006874E0,3.326405082E0
7.408968593E0,-7.319402695E-1,3.034284353E0,-1.728050709E0,3.567741211E0
7.413968593E0,-9.271990061E-1,3.503080368E0,-7.823324203E-1,3.707197604E0
7.418968593E0,-1.232276201E0,3.560474873E0,-6.255760193E-1,3.819271044E0
7.423968593E0,-1.339649677E0,2.741635323E0,-7.673044205E-1,3.146423616E0
7.428968593E0,-9.059029818E-1,1.714904308E0,-1.365880966E0,2.372169432E0
7.433968593E0,-3.805471063E-1,7.876895666E-1,-2.011508942E0,2.193499299E0
7.438968593E0,1.566359997E-1,5.526900291E-3,-2.576826572E0,2.581588768E0
7.443968593E0,7.532893419E-1,-5.476160049E-1,-2.722826004E0,2.877691709E0
7.448968593E0,1.349506736E0,-8.654583693E-1,-2.514665127E0,2.982235289E0
7.453968593E0,1.871291041E0,-1.039123297E0,-2.257258892E0,3.110743495E0
7.458968593E0,2.271948338E0,-1.112009764E0,-1.995069981E0,3.221586440E0
7.463968593E0,2.442650318E0,-1.154327393E0,-1.783165932E0,3.237080945E0
7.468968593E0,2.504663467E0,-1.096100569E0,-1.574783802E0,3.155110072E0
7.473968593E0,2.445059299E0,-9.847902060E-1,-1.282562256E0,2.931397733E0
7.478968593E0,2.189059019E0,-8.327998519E-1,-1.040923119E0,2.563016957E0
7.483968593E0,1.864430666E0,-6.222008467E-1,-7.159709930E-1,2.091853261E0
7.488968593E0,1.305909395E0,-4.401512742E-1,-6.293430328E-1,1.514993447E0
7.493968593E0,8.254190683E-1,-1.673173308E-1,-4.117898941E-1,9.374874103E-1
7.498968593E0,3.621321917E-1,1.255888343E-1,-1.825466156E-1,4.245415721E-1
7.503968593E0,-4.026204348E-2,4.572812915E-1,3.561687469E-2,4.604299876E-1
7.508968593E0,-3.682767153E-1,8.458146453E-1,3.042707443E-1,9.713963347E-1
7.513968593E0,-6.822700500E-1,1.234266400E0,3.960313797E-1,1.464836790E0
7.518968593E0,-9.082094431E-1,1.640310526E0,6.489887238E-1,1.984099135E0
7.523968593E0,-1.101066232E0,2.029397011E0,7.090806961E-1,2.415283525E0
7.528968593E0,-1.341333389E0,2.429031372E0,6.579103470E-1,2.851703823E0
7.533968593E0,-1.470431209E0,2.814471483E0,7.696542740E-1,3.267382036E0
7.538968593E0,-1.606629848E0,3.087445974E0,7.343235016E-1,3.557079296E0
7.543968593E0,-1.768947005E0,3.290662527E0,4.710464478E-1,3.765570094E0
7.548968593E0,-1.865817070E0,3.455545187E0,4.118623734E-1,3.948632231E0
7.553968593E0,-1.863640189E0,3.566729546E0,2.419795990E-1,4.031534265E0
7.558968593E0,-1.717410684E0,3.553267479E0,-1.364746094E-1,3.948902956E0
7.563968593E0,-1.350776553E0,3.382945299E0,-5.798702240E-1,3.688518086E0
7.568968593E0,-8.925338984E-1,3.031803131E0,-7.704334259E-1,3.253000868E0
7.573968593E0,-7.616831064E-1,2.762389421E0,-1.649093628E-1,2.870218035E0
7.578968593E0,-1.252490163E0,2.799754620E0,1.514115334E0,3.420512064E0
7.583968593E0,-1.317187190E0,2.292561054E0,1.849013329E0,3.226401799E0
7.588968593E0,-7.747267485E-1,1.264489651E0,6.797666550E-1,1.631324099E0
7.593968593E0,-5.337731242E-1,6.770598292E-1,5.767469406E-1,1.037285300E0
7.598968593E0,-4.526664615E-1,3.339044154E-1,9.307775497E-1,1.087541232E0
7.603968593E0,-3.460050225E-1,4.649046063E-2,1.114307404E0,1.167716502E0
7.608968593E0,-1.418835819E-1,-1.791563630E-1,1.186038017E0,1.207855178E0
7.613968593E0,4.773243889E-2,-3.336513638E-1,1.035826683E0,1.089283496E0
7.618968593E0,2.184617966E-1,-3.980379403E-1,9.316902161E-1,1.036439297E0
7.623968593E0,3.024727106E-1,-3.409745693E-1,8.765373230E-1,9.879630946E-1
7.628968593E0,3.072308600E-1,-2.132233381E-1,8.432226181E-1,9.224312315E-1
7.633968593E0,2.903989553E-1,1.094439626E-2,9.472913742E-1,9.908644109E-1
7.638968593E0,1.880238205E-1,2.371614128E-1,8.540582657E-1,9.060982364E-1
7.643968593E0,6.908491999E-2,4.926040769E-1,9.490222931E-1,1.071482532E0
7.648968593E0,-8.073846996E-2,7.882343531E-1,1.043721199E0,1.310414452E0
7.653968593E0,-1.729524136E-1,1.084804535E0,1.055480003E0,1.523401278E0
7.658968593E0,-2.157640010E-1,1.336541295E0,1.011448860E0,1.689948382E0
7.663968593E0,-2.351543009E-1,1.528880119E0,8.378067017E-1,1.759173679E0
7.668968593E0,-2.621745467E-1,1.644869328E0,6.252546310E-1,1.779121680E0
7.673968593E0,-3.524878025E-1,1.688157797E0,5.228872299E-1,1.802091966E0
7.678968593E0,-4.429925680E-1,1.659249783E0,4.374456406E-1,1.772205108E0
7.683968593E0,-4.924925566E-1,1.556645036E0,3.738813400E-1,1.674956699E0
7.688968593E0,-3.040595949E-1,1.370168447E0,8.760547638E-2,1.406232033E0
7.693968593E0,4.050962627E-3,1.036010981E0,-2.934989929E-1,1.076790054E0
7.698968593E0,1.989915669E-1,6.401040554E-1,-4.071197510E-1,7.842686638E-1
7.703968593E0,1.880818903E-1,3.043947518E-1,-1.048822403E-1,3.728689404E-1
7.708968593E0,1.811260730E-1,-1.121291518E-2,1.055831909E-1,2.099528375E-1
7.713968593E0,2.818576097E-1,-3.017298579E-1,-6.897544861E-2,4.186194356E-1
7.718968593E0,4.429445565E-1,-5.009228587E-1,-1.135902405E-1,6.782524111E-1
7.723968593E0,5.418452024E-1,-6.011174917E-1,-1.593894958E-1,8.248293603E-1
7.728968593E0,5.644478798E-1,-5.729746222E-1,-1.914138794E-1,8.267651420E-1
7.733968593E0,5.543834567E-1,-4.419450760E-1,-1.005029678E-1,7.160707464E-1
7.738968593E0,4.373972118E-1,-2.269224972E-1,-2.462577820E-2,4.933726478E-1
7.743968593E0,2.558143735E-1,4.523043334E-2,5.146026611E-2,2.648300300E-1
7.748968593E0,1.203588992E-1,2.958854437E-1,1.485280991E-1,3.522712827E-1
7.753968593E0,8.566895127E-2,4.702048898E-1,3.473033905E-1,5.908057656E-1
7.758968593E0,1.545397043E-1,5.536658168E-1,5.875558853E-1,8.219794859E-1
7.763968593E0,1.857880354E-1,5.580014586E-1,6.224946976E-1,8.563775280E-1
7.768968593E0,1.947620064E-1,5.142235756E-1,5.051069260E-1,7.466532873E-1
7.773968593E0,1.709964424E-1,4.301747084E-1,3.581943512E-1,5.853146643E-1
7.778968593E0,1.710744500E-1,3.196407855E-1,2.698106766E-1,4.519231133E-1
7.783968593E0,1.975758076E-1,2.051878870E-1,2.159957886E-1,3.574806979E-1
7.788968593E0,1.728059202E-1,1.389974505E-1,1.552190781E-1,2.706938114E-1
7.793968593E0,1.573278606E-1,8.832307160E-2,8.648586273E-2,2.000820460E-1
7.798968593E0,1.893041134E-1,4.739916325E-2,5.172538757E-2,2.018867102E-1
7.803968593E0,2.328985333E-1,2.324631810E-2,6.683731079E-2,2.434118819E-1
7.808968593E0,2.871846259E-1,1.565417647E-2,1.399698257E-1,3.198618681E-1
7.813968593E0,3.373321295E-1,1.463592052E-3,2.660846710E-1,4.296465522E-1
7.818968593E0,3.760126829E-1,6.999373436E-4,3.763160706E-1,5.319772670E-1
7.823968593E0,3.771655262E-1,2.387213707E-2,4.144306183E-1,5.608711531E-1
7.828968593E0,5.188652873E-1,1.472848654E-2,4.158277512E-1,6.650946048E-1
7.833968593E0,5.882503390E-1,-2.885979414E-2,3.689041138E-1,6.949543829E-1
7.838968593E0,5.316717029E-1,-3.945851326E-2,3.625736237E-1,6.447413485E-1
7.843968593E0,4.935429692E-1,-6.337612867E-2,3.638591766E-1,6.164370986E-1
7.848968593E0,4.852265120E-1,-9.329891205E-2,3.169584274E-1,5.870367106E-1
7.853968593E0,4.739140570E-1,-1.100990772E-1,2.865877151E-1,5.646670335E-1
7.858968593E0,4.360403717E-1,-9.524911642E-2,3.135404587E-1,5.454458902E-1
7.863968593E0,3.649732769E-1,-5.204093456E-2,3.738327026E-1,5.250377522E-1
7.868968593E0,3.261348605E-1,-2.792894840E-3,4.389667511E-1,5.468670369E-1
7.873968593E0,2.822766900E-1,4.313808680E-2,4.841251373E-1,5.620659862E-1
7.878968593E0,2.186870277E-1,4.903113842E-2,5.155162811E-1,5.621255240E-1
7.883968593E0,1.982795596E-1,3.622835875E-2,4.833602905E-1,5.237026334E-1
7.888968593E0,1.984410435E-1,-1.184767485E-2,4.547967911E-1,4.963459845E-1
7.893968593E0,2.242252976E-1,-7.233893871E-2,4.122133255E-1,4.747944101E-1
7.898968593E0,2.259090096E-1,-1.102887392E-1,3.588542938E-1,4.381493932E-1
7.903968593E0,2.279578596E-1,-1.244422793E-1,2.981300354E-1,3.953886501E-1
7.908968593E0,2.165377885E-1,-1.463886499E-1,1.704025269E-1,3.120180633E-1
7.913968593E0,2.197797745E-1,-1.608104110E-1,-7.052421570E-3,2.724203998E-1
7.918968593E0,2.367798686E-1,-1.597563028E-1,-2.216043472E-1,3.615180067E-1
7.923968593E0,2.648856342E-1,-1.507409811E-1,-4.577026367E-1,5.498899401E-1
7.928968593E0,3.072767258E-1,-1.319155097E-1,-6.422033310E-1,7.240482071E-1
7.933968593E0,3.789196312E-1,-1.239516139E-1,-7.424907684E-1,8.427553801E-1
7.938968593E0,4.899908900E-1,-1.323368549E-1,-7.817049026E-1,9.320228915E-1
7.943968593E0,5.798267126E-1,-1.327362061E-1,-7.556982040E-1,9.617160146E-1
7.948968593E0,6.048703194E-1,-8.430969715E-2,-6.802577972E-1,9.141809990E-1
7.953968593E0,5.778675079E-1,-3.255236149E-2,-5.543985367E-1,8.014663127E-1
7.958968593E0,5.277854204E-1,4.836797714E-3,-3.806114197E-1,6.507272066E-1
7.963968593E0,4.509025514E-1,1.524591446E-2,-1.866483688E-1,4.882449819E-1
7.968968593E0,3.884195387E-1,1.405918598E-2,-5.043029785E-3,3.887066129E-1
7.973968593E0,3.401950300E-1,1.751351357E-2,1.221113205E-1,3.618709109E-1
7.978968593E0,2.866836190E-1,1.685929298E-2,1.722707748E-1,3.348864778E-1
7.983968593E0,2.616445422E-1,-3.733634949E-3,1.339797974E-1,2.939768573E-1
7.988968593E0,2.725184858E-1,-2.531743050E-2,6.436347961E-2,2.811582382E-1
7.993968593E0,2.859283984E-1,-7.157206535E-2,-6.175899506E-2,3.011507646E-1
7.998968593E0,3.034167588E-1,-1.162971258E-1,-2.194194794E-1,3.920862901E-1
8.003968593E0,3.080589771E-1,-1.103068590E-1,-3.449592590E-1,4.754627503E-1
8.008968593E0,2.437740415E-1,-5.839407444E-2,-4.348115921E-1,5.018931877E-1
8.013968593E0,1.276867837E-1,4.688739777E-2,-5.000267029E-1,5.181978834E-1
8.018968593E0,-1.854258776E-2,1.795057058E-1,-5.450010300E-1,5.741012530E-1
8.023968593E0,-1.735217571E-1,3.437792063E-1,-5.393695831E-1,6.627318387E-1
8.028968593E0,-3.347379565E-1,5.062648058E-1,-5.041427612E-1,7.889952324E-1
8.033968593E0,-4.638800919E-1,6.230548620E-1,-4.197120667E-1,8.829158055E-1
8.038968593E0,-5.225334167E-1,6.823241711E-1,-3.312406540E-1,9.210471307E-1
8.043968593E0,-5.091199875E-1,6.615391970E-1,-2.846975327E-1,8.819807004E-1
8.048968593E0,-4.455721378E-1,5.851873159E-1,-2.969083786E-1,7.931792421E-1
8.053968593E0,-3.518959284E-1,4.534243345E-1,-3.405637741E-1,6.673889839E-1
8.058968593E0,-2.664430737E-1,2.799589634E-1,-4.312896729E-1,5.791197757E-1
8.063968593E0,-1.900610626E-1,7.280445099E-2,-4.934253693E-1,5.337530240E-1
8.068968593E0,-1.319330037E-1,-9.881043434E-2,-4.995040894E-1,5.259982459E-1
8.073968593E0,-1.119802892E-1,-2.134177685E-1,-4.561996460E-1,5.159504299E-1
8.078968593E0,-1.140662134E-1,-2.758325338E-1,-3.538360596E-1,4.629196959E-1
