"Time (s)","Acceleration x (m/s^2)","Acceleration y (m/s^2)","Acceleration z (m/s^2)","Absolute acceleration (m/s^2)"
0.000000000E0,6.203392744E-1,4.241278172E0,8.443673134E0,9.469365202E0
0.000000000E0,4.271188378E-1,4.294518471E0,8.242077827E0,9.303610391E0
0.000000000E0,3.044866920E-1,4.345366001E0,8.165507317E0,9.254751621E0
0.000000000E0,3.990031779E-1,4.294518471E0,8.353941917E0,9.401618903E0
0.000000000E0,6.891329288E-1,4.261018753E0,8.931210518E0,9.919561801E0
0.000000000E0,9.284151793E-1,4.305285931E0,8.782855988E0,9.825273583E0
0.000000000E0,8.249256015E-1,4.453640938E0,8.331808090E0,9.483377347E0
0.000000000E0,5.772684813E-1,4.405784607E0,8.250452042E0,9.370919688E0
0.000000000E0,6.424728632E-1,4.304089546E0,8.446663857E0,9.501793963E0
0.000000000E0,7.369893789E-1,4.227519512E0,8.739784241E0,9.736472829E0
0.000000000E0,7.495517135E-1,4.210171223E0,8.790034294E0,9.775074035E0
0.000000000E0,8.219345808E-1,4.286143780E0,8.746963501E0,9.775273676E0
0.000000000E0,8.249256015E-1,4.180859566E0,8.803792953E0,9.780943683E0
0.000000000E0,6.424728632E-1,4.101297855E0,8.681160927E0,9.622680007E0
0.000000000E0,3.762713671E-1,4.110869408E0,8.593224525E0,9.533327602E0
0.000000000E0,4.181457460E-1,4.128815651E0,8.745168686E0,9.679872927E0
0.000000000E0,5.874379873E-1,4.092923164E0,8.914461136E0,9.826735000E0
0.000000000E0,7.692924738E-1,4.303491592E0,8.656036377E0,9.697361319E0
0.000000000E0,7.830511928E-1,4.526023865E0,8.557929993E0,9.712683818E0
0.000000000E0,6.125625968E-1,4.455435753E0,8.923434258E0,9.992688309E0
0.000000000E0,3.942175210E-1,4.248456478E0,9.062815666E0,1.001695651E1
0.000000000E0,2.679961324E-1,4.103092670E0,8.813961983E0,9.725899301E0
0.000000000E0,2.374876440E-1,4.521238327E0,7.275377274E0,8.569078764E0
0.000000000E0,5.300102234E-1,4.519443989E0,8.373682976E0,9.530207311E0
0.000000000E0,9.936196208E-1,4.159922123E0,9.739984512E0,1.063764684E1
0.000000000E0,1.135394335E0,3.874577999E0,1.008156013E1,1.085998756E1
1.290538100E-2,5.503492355E-1,4.130012035E0,8.714659691E0,9.659460504E0
1.498079800E-2,5.072783828E-1,4.168296814E0,8.671588898E0,9.634753951E0
1.705611100E-2,4.642075896E-1,4.187439442E0,8.633303642E0,9.606459782E0
1.913147500E-2,4.307080805E-1,4.216153622E0,8.585447311E0,9.574516507E0
2.120678800E-2,4.019941986E-1,4.249652863E0,8.547162056E0,9.553801756E0
2.328210000E-2,3.876372576E-1,4.278367043E0,8.499305725E0,9.523281210E0
2.535746500E-2,3.780659735E-1,4.297509670E0,8.446663857E0,9.484600864E0
2.743282900E-2,3.732803464E-1,4.316651821E0,8.379665375E0,9.433536609E0
2.950814200E-2,3.541377485E-1,4.321437836E0,8.336593628E0,9.396756453E0
3.158350600E-2,3.349951804E-1,4.345366001E0,8.288737297E0,9.364699324E0
3.365881900E-2,3.302095234E-1,4.364508629E0,8.260024071E0,9.348046403E0
3.573413100E-2,3.397808075E-1,4.388436794E0,8.231309891E0,9.334253640E0
3.780949600E-2,3.397808075E-1,4.407579422E0,8.212167740E0,9.326409081E0
3.988480800E-2,3.541377485E-1,4.417150497E0,8.212167740E0,9.331469930E0
4.196017300E-2,3.780659735E-1,4.431507587E0,8.216953278E0,9.343420923E0
4.403548600E-2,4.019941986E-1,4.450650215E0,8.226524353E0,9.361922324E0
4.611079800E-2,4.354937077E-1,4.460221291E0,8.255238533E0,9.393199240E0
4.818616300E-2,4.833501875E-1,4.484149456E0,8.279166222E0,9.427927507E0
5.026147500E-2,5.312066078E-1,4.484149456E0,8.317451477E0,9.464131015E0
5.233678800E-2,5.694918036E-1,4.474578381E0,8.365307808E0,9.503922733E0
5.441215200E-2,6.269195080E-1,4.493721008E0,8.413164139E0,9.558655104E0
5.648751700E-2,6.843472719E-1,4.498506546E0,8.437092781E0,9.585897294E0
5.856282900E-2,7.274180651E-1,4.493721008E0,8.470592499E0,9.616319609E0
6.063814200E-2,7.752745152E-1,4.503292084E0,8.508877754E0,9.658244706E0
6.271350600E-2,8.087740541E-1,4.508078098E0,8.561519623E0,9.709608739E0
6.478881900E-2,8.470591903E-1,4.517649174E0,8.609375954E0,9.759509088E0
6.686418300E-2,8.709874153E-1,4.527220249E0,8.647661209E0,9.799815644E0
6.893949600E-2,9.044869542E-1,4.527220249E0,8.695517540E0,9.845092439E0
7.101475600E-2,9.284151793E-1,4.541577339E0,8.738588333E0,9.891956608E0
7.309017300E-2,9.332008362E-1,4.546362877E0,8.776873589E0,9.928433371E0
7.516548600E-2,9.523434043E-1,4.555934429E0,8.819944382E0,9.972708528E0
7.724085000E-2,9.714859724E-1,4.555934429E0,8.863015175E0,1.001266006E1
7.931616300E-2,9.906286001E-1,4.565505505E0,8.896514893E0,1.004854033E1
8.139152700E-2,1.004985452E0,4.546362877E0,8.939585686E0,1.007946444E1
8.346684000E-2,1.024128079E0,4.527220249E0,8.963513374E0,1.009401474E1
8.554215200E-2,1.033699393E0,4.527220249E0,8.997013092E0,1.012474702E1
8.761751700E-2,1.028913736E0,4.522434711E0,9.035298347E0,1.015616539E1
8.969282900E-2,1.014556766E0,4.532006264E0,9.083154678E0,1.020157366E1
9.176819400E-2,1.009771109E0,4.527220249E0,9.140582085E0,1.025015130E1
9.384350600E-2,9.954141974E-1,4.527220249E0,9.183652878E0,1.028717905E1
9.591887100E-2,9.906286001E-1,4.541577339E0,9.241081238E0,1.034431497E1
9.799418300E-2,9.858429432E-1,4.551148891E0,9.269794464E0,1.037371351E1
1.000694960E-1,9.858429432E-1,4.555934429E0,9.293723106E0,1.039719741E1
1.021448610E-1,9.762716293E-1,4.555934429E0,9.308079720E0,1.040913027E1
1.042201730E-1,9.714859724E-1,4.570291042E0,9.303294182E0,1.041069776E1
1.062955380E-1,9.523434043E-1,4.584648132E0,9.288937569E0,1.040241883E1
1.083708500E-1,9.332008362E-1,4.613361835E0,9.260223389E0,1.038776725E1
1.104461630E-1,9.188438654E-1,4.622933388E0,9.231510162E0,1.036516122E1
1.125215270E-1,9.044869542E-1,4.632504463E0,9.178867340E0,1.032132743E1
1.145968400E-1,8.949156404E-1,4.646861553E0,9.131011009E0,1.028443282E1
1.166722040E-1,8.901300430E-1,4.661218643E0,9.068798065E0,1.023534997E1
1.187475170E-1,8.949156404E-1,4.685146809E0,8.982656479E0,1.017052565E1
1.208228810E-1,8.997012973E-1,4.718646049E0,8.906085968E0,1.011896488E1
1.228981940E-1,9.140582681E-1,4.756931305E0,8.839086533E0,1.007935259E1
1.249735060E-1,9.236295223E-1,4.795216560E0,8.757730484E0,1.002721480E1
1.270488190E-1,9.379864931E-1,4.823930264E0,8.662017822E0,9.958949473E0
1.291241830E-1,9.475577474E-1,4.867001057E0,8.575876236E0,9.906120239E0
1.311995480E-1,9.379864931E-1,4.905286312E0,8.499305725E0,9.857984088E0
1.332748610E-1,9.284151793E-1,4.938786030E0,8.432307243E0,9.816178872E0
1.353501730E-1,9.332008362E-1,4.967499733E0,8.355736732E0,9.765513491E0
1.374255380E-1,9.236295223E-1,5.015356064E0,8.279166222E0,9.723758598E0
1.395008500E-1,9.140582681E-1,5.044070244E0,8.202595711E0,9.672679233E0
1.415762150E-1,8.949156404E-1,5.063212872E0,8.126026154E0,9.616095862E0
1.436515270E-1,8.949156404E-1,5.072783947E0,8.063812256E0,9.568650849E0
1.457268400E-1,8.949156404E-1,5.053641319E0,8.020741463E0,9.522208683E0
1.478022040E-1,9.092726111E-1,5.039284706E0,8.015955925E0,9.511924959E0
1.498775170E-1,9.475577474E-1,5.024927616E0,8.044670105E0,9.532286207E0
1.519528810E-1,9.858429432E-1,5.020142078E0,8.130811691E0,9.606446354E0
1.540281940E-1,1.024128079E0,5.005784988E0,8.240880966E0,9.696331305E0
1.561035580E-1,1.038485050E0,5.000999451E0,8.360522270E0,9.797284284E0
1.581788710E-1,1.033699393E0,4.996213913E0,8.484949112E0,9.900760038E0
1.602541830E-1,1.028913736E0,4.972285271E0,8.585447311E0,9.974577175E0
1.623295480E-1,1.000199914E0,4.953142643E0,8.676374435E0,1.004059238E1
1.644048610E-1,9.619147182E-1,4.934000492E0,8.762516975E0,1.010204655E1
1.664802250E-1,9.188438654E-1,4.919643402E0,8.839086533E0,1.015758908E1
1.685555380E-1,8.757730722E-1,4.876572609E0,8.896514893E0,1.018311917E1
1.706308500E-1,8.374879360E-1,4.838287354E0,8.944371223E0,1.020353797E1
1.727062150E-1,8.231309652E-1,4.790431023E0,8.992227554E0,1.022183596E1
1.747815270E-1,8.087740541E-1,4.742574692E0,9.054440498E0,1.025324451E1
1.768568920E-1,7.848458290E-1,4.704289436E0,9.102297783E0,1.027609590E1
1.789322040E-1,7.800601721E-1,4.661218643E0,9.135796547E0,1.028582674E1
1.810075690E-1,7.752745152E-1,4.627718925E0,9.169296265E0,1.030013723E1
1.830828810E-1,7.657032609E-1,4.622933388E0,9.193224907E0,1.031858512E1
1.851581940E-1,7.752745152E-1,4.618147850E0,9.202795982E0,1.032568613E1
1.872335580E-1,8.039883971E-1,4.603790760E0,9.174081802E0,1.029587605E1
1.893088710E-1,8.518448472E-1,4.603790760E0,9.126225471E0,1.025712047E1
1.913842360E-1,9.044869542E-1,4.599005222E0,9.025727272E0,1.017018675E1
1.934595480E-1,9.619147182E-1,4.584648132E0,8.910871506E0,1.006716988E1
1.955348610E-1,1.014556766E0,4.584648132E0,8.772088051E0,9.949766465E0
1.976102250E-1,1.062413216E0,4.579862595E0,8.623732567E0,9.822047985E0
1.996855380E-1,1.105484009E0,4.589433670E0,8.484949112E0,9.709755802E0
2.017609020E-1,1.124626637E0,4.618147850E0,8.370093346E0,9.625514908E0
2.038362150E-1,1.148554921E0,4.646861553E0,8.288737297E0,9.571607320E0
2.059115270E-1,1.167697430E0,4.704289436E0,8.212167740E0,9.535908734E0
2.079868920E-1,1.201196909E0,4.766502857E0,8.149953842E0,9.517571703E0
2.100622040E-1,1.253839016E0,4.828716278E0,8.097311974E0,9.510787263E0
2.121375690E-1,1.330409408E0,4.886143684E0,8.063812256E0,9.522051113E0
2.142128810E-1,1.406979680E0,4.943571568E0,8.025527000E0,9.530350219E0
2.162882460E-1,1.526620865E0,4.991427898E0,8.015955925E0,9.565587965E0
2.183635580E-1,1.631905079E0,5.020142078E0,7.987242222E0,9.573974043E0
2.204388710E-1,1.727617979E0,5.024927616E0,7.987242222E0,9.593258036E0
2.225142360E-1,1.808973908E0,5.020142078E0,7.977670670E0,9.597783202E0
2.245895480E-1,1.875972986E0,5.015356064E0,8.001599312E0,9.628014470E0
2.266649130E-1,1.909472466E0,5.024927616E0,8.049455643E0,9.679344957E0
2.287402250E-1,1.919043779E0,5.034498692E0,8.135597229E0,9.757912091E0
2.308155900E-1,1.923829436E0,5.039284706E0,8.236095428E0,9.845241386E0
2.328909020E-1,1.923829436E0,5.063212872E0,8.346165657E0,9.949659565E0
2.349662150E-1,1.952543259E0,5.072783947E0,8.465806961E0,1.006058893E1
2.370415790E-1,1.976471543E0,5.067998409E0,8.566305161E0,1.014754314E1
2.391168920E-1,2.009970903E0,5.053641319E0,8.700303078E0,1.026033855E1
2.411922560E-1,2.048256159E0,5.034498692E0,8.834300995E0,1.037238663E1
2.432675690E-1,2.062613010E0,5.005784988E0,8.953942299E0,1.046352419E1
2.453428810E-1,1.995614052E0,5.020142078E0,9.064012527E0,1.055180672E1
2.474182460E-1,1.966900229E0,4.962714195E0,9.169296265E0,1.061005291E1
2.494935580E-1,1.914258122E0,4.924428940E0,9.260223389E0,1.066143151E1
2.515689230E-1,1.799402595E0,4.938786030E0,9.327222824E0,1.070637860E1
2.536442360E-1,1.426122308E0,5.268995285E0,9.360722542E0,1.083601692E1
2.557195480E-1,4.211367965E-1,6.340980053E0,9.480362892E0,1.141326705E1
2.577948610E-1,1.339980662E-1,6.297909260E0,9.451649666E0,1.135849013E1
2.598702250E-1,2.488535494E-1,5.962913990E0,9.317651749E0,1.106512112E1
2.619455900E-1,3.493520916E-1,5.900700569E0,9.126225471E0,1.087328402E1
2.640209020E-1,3.972085714E-1,5.833701611E0,8.877371788E0,1.063003194E1
2.660962150E-1,4.594219327E-1,5.627918720E0,8.618947029E0,1.030392088E1
2.681715790E-1,6.029912829E-1,5.297709465E0,8.408378601E0,9.956412746E0
2.702468920E-1,7.465606928E-1,4.991427898E0,8.245666504E0,9.667611982E0
2.723222560E-1,8.470591903E-1,4.771288395E0,8.140382767E0,9.473570278E0
2.743975690E-1,9.044869542E-1,4.584648132E0,8.087740898E0,9.340698474E0
2.764729330E-1,9.475577474E-1,4.441078663E0,8.073383331E0,9.262859374E0
2.785482460E-1,9.714859724E-1,4.321437836E0,8.111668587E0,9.242173836E0
2.806235580E-1,9.619147182E-1,4.235296249E0,8.193024635E0,9.273007437E0
2.826989230E-1,9.044869542E-1,4.220939159E0,8.327022552E0,9.379431146E0
2.847742360E-1,8.231309652E-1,4.211368084E0,8.494520187E0,9.516829248E0
2.868496000E-1,7.034898400E-1,4.240081787E0,8.671588898E0,9.678307989E0
2.889249130E-1,5.742774606E-1,4.283152580E0,8.867800713E0,9.864739232E0
2.910001730E-1,4.498506486E-1,4.335794449E0,9.073583603E0,1.006634981E1
2.930755900E-1,3.445664644E-1,4.398007870E0,9.274580956E0,1.027029947E1
2.951509020E-1,2.775674164E-1,4.474578381E0,9.480362892E0,1.048695265E1
2.972262670E-1,2.488535494E-1,4.551148891E0,9.647860527E0,1.067033725E1
2.993015790E-1,2.919243574E-1,4.618147850E0,9.767501831E0,1.080817290E1
3.013768920E-1,3.637090325E-1,4.675575256E0,9.834501266E0,1.089544416E1
3.034522560E-1,4.737788737E-1,4.685146809E0,9.829715729E0,1.089946688E1
3.055275690E-1,6.029912829E-1,4.661218643E0,9.772287369E0,1.084380736E1
3.076029330E-1,7.465606928E-1,4.613361835E0,9.671789169E0,1.074169288E1
3.096782460E-1,8.709874153E-1,4.541577339E0,9.556933403E0,1.061694494E1
3.117536110E-1,9.906286001E-1,4.460221291E0,9.427721024E0,1.047649000E1
3.138289230E-1,1.115055323E0,4.374079704E0,9.308079720E0,1.034486683E1
3.159042360E-1,1.249053478E0,4.278367043E0,9.202795982E0,1.022526347E1
3.179796000E-1,1.392622828E0,4.192225456E0,9.121439934E0,1.013483197E1
3.200549130E-1,1.521835208E0,4.168296814E0,9.059226990E0,1.008762977E1
3.221302770E-1,1.636690736E0,4.149154663E0,9.020941734E0,1.006338068E1
3.242055900E-1,1.732403636E0,4.153940201E0,8.977870941E0,1.004283865E1
3.262809020E-1,1.828116536E0,4.192225456E0,8.953942299E0,1.005434468E1
3.283562670E-1,1.923829436E0,4.235296249E0,8.944371223E0,1.008169780E1
3.304315790E-1,2.005185366E0,4.307080746E0,8.934800148E0,1.011940545E1
3.325069440E-1,2.057827473E0,4.402793884E0,8.949156761E0,1.018364643E1
3.345822560E-1,2.096112728E0,4.517649174E0,8.953942299E0,1.024577597E1
3.366576210E-1,2.115255117E0,4.632504463E0,8.982656479E0,1.032581809E1
3.387329330E-1,2.120040894E0,4.785645485E0,9.001798630E0,1.041294169E1
3.408082460E-1,2.105684042E0,4.919643402E0,9.016156197E0,1.048464921E1
3.428836110E-1,2.076970100E0,5.044070244E0,9.006584167E0,1.052972021E1
3.449589230E-1,2.024327993E0,5.139782906E0,8.949156761E0,1.051678082E1
3.470342360E-1,1.957328916E0,5.221138954E0,8.872586250E0,1.047922780E1
3.491096000E-1,1.875972986E0,5.268995285E0,8.767302513E0,1.039938360E1
3.511849130E-1,1.770688772E0,5.316852093E0,8.642875671E0,1.030065798E1
3.532602770E-1,1.660618901E0,5.359922886E0,8.499305725E0,1.018452877E1
3.553355900E-1,1.555334687E0,5.374279499E0,8.341380119E0,1.004393192E1
3.574109540E-1,1.421336651E0,5.249852657E0,8.126026154E0,9.778213121E0
3.594862670E-1,1.277767301E0,5.053641319E0,7.915457249E0,9.477681326E0
3.615615790E-1,1.205982566E0,4.929214478E0,7.805387497E0,9.309974398E0
3.636369440E-1,1.186840057E0,4.795216560E0,7.786244869E0,9.221079131E0
3.657122560E-1,1.215553880E0,4.656432629E0,7.896314621E0,9.247254763E0
3.677876210E-1,1.306481123E0,4.517649174E0,8.126026154E0,9.388735167E0
3.698636110E-1,1.392622828E0,4.398007870E0,8.456234932E0,9.632745236E0
3.719382980E-1,1.430907965E0,4.297509670E0,8.800801277E0,9.897989194E0
3.740136110E-1,1.416550994E0,4.192225456E0,9.150154114E0,1.016398993E1
3.760889230E-1,1.349551916E0,4.072584152E0,9.461220741E0,1.038854802E1
3.781642880E-1,1.234696507E0,3.938585997E0,9.734002113E0,1.057297178E1
3.802396000E-1,1.091127157E0,3.804588079E0,1.000199890E1,1.075664590E1
3.823149650E-1,9.332008362E-1,3.684946775E0,1.027956581E1,1.095988913E1
3.843902770E-1,7.609176040E-1,3.541377544E0,1.058584690E1,1.118840941E1
3.864752250E-1,6.173482537E-1,3.407379389E0,1.089212894E1,1.142934058E1
3.885409540E-1,4.642075896E-1,3.287738323E0,1.121755219E1,1.169864048E1
3.906162670E-1,3.158525825E-1,3.196810961E0,1.152861977E1,1.196780836E1
3.926916310E-1,2.057827413E-1,3.105883837E0,1.184447193E1,1.224664755E1
3.947669440E-1,1.052841991E-1,3.014956474E0,1.216989613E1,1.253823827E1
3.968422560E-1,1.435693540E-2,2.952743053E0,1.247617722E1,1.282083833E1
3.989176210E-1,-9.092725813E-2,2.909672260E0,1.275853062E1,1.308642671E1
4.009929330E-1,-1.914258152E-1,2.876172781E0,1.297867012E1,1.329491977E1
4.030682980E-1,-2.919243574E-1,2.847458839E0,1.315573883E1,1.346353244E1
4.051436110E-1,-3.732803464E-1,2.828316450E0,1.323709488E1,1.354102629E1
4.072189230E-1,-4.402793646E-1,2.809173822E0,1.325145149E1,1.355309080E1
4.092942880E-1,-4.977070987E-1,2.804388046E0,1.317488194E1,1.347923658E1
4.113696000E-1,-5.264210105E-1,2.813959360E0,1.302174091E1,1.333271251E1
4.134449650E-1,-5.455635786E-1,2.871387243E0,1.281595802E1,1.314500987E1
4.155202770E-1,-5.264210105E-1,2.967100143E0,1.264367485E1,1.299781967E1
4.175956420E-1,-4.546363056E-1,3.086741209E0,1.248096275E1,1.286503388E1
4.196709540E-1,-3.397808075E-1,3.201596737E0,1.234217930E1,1.275519747E1
4.217462670E-1,-1.770688742E-1,3.302095175E0,1.218903828E1,1.262964133E1
4.238216310E-1,1.914258115E-2,3.412165165E0,1.200718403E1,1.248261615E1
4.258969440E-1,2.344966233E-1,3.503092289E0,1.179183006E1,1.230341012E1
4.279722560E-1,4.402793646E-1,3.555734396E0,1.154776192E1,1.209081876E1
4.300476210E-1,6.221339107E-1,3.574877024E0,1.129412270E1,1.186271486E1
4.321229330E-1,7.848458290E-1,3.570091486E0,1.105484104E1,1.164349804E1
4.341982980E-1,8.997012973E-1,3.570091486E0,1.082512951E1,1.143409133E1
4.362736110E-1,9.906286001E-1,3.560520172E0,1.060977554E1,1.123503387E1
4.383489230E-1,1.000199914E0,3.579662561E0,1.043749237E1,1.107951402E1
4.404242880E-1,9.858429432E-1,3.608376503E0,1.030827999E1,1.096598849E1
4.424996000E-1,9.619147182E-1,3.651447296E0,1.022213840E1,1.089726850E1
4.445749130E-1,9.379864931E-1,3.694518089E0,1.017906761E1,1.086934681E1
4.466502770E-1,9.523434043E-1,3.723232031E0,1.015513897E1,1.085800452E1
4.487255900E-1,9.571290612E-1,3.732803345E0,1.015992451E1,1.086618529E1
4.508009540E-1,9.523434043E-1,3.694518089E0,1.019342422E1,1.088403966E1
4.528762670E-1,9.092726111E-1,3.670589924E0,1.022213840E1,1.089917981E1
4.549516310E-1,8.614161611E-1,3.632304668E0,1.027956581E1,1.093641387E1
4.570269440E-1,7.848458290E-1,3.603590965E0,1.033699417E1,1.097521295E1
4.591023080E-1,6.939185858E-1,3.589233875E0,1.040399265E1,1.102756482E1
4.611776210E-1,5.742774606E-1,3.574877024E0,1.044227791E1,1.105218115E1
4.632529860E-1,4.498506486E-1,3.570091486E0,1.047577763E1,1.107654439E1
4.653282980E-1,3.206382394E-1,3.527020693E0,1.048534870E1,1.106730415E1
4.674036110E-1,1.722832322E-1,3.507878065E0,1.046142101E1,1.103522631E1
4.694789750E-1,9.571290575E-3,3.455235958E0,1.046142101E1,1.101726267E1
4.715542880E-1,-1.531406492E-1,3.388236761E0,1.040399265E1,1.094288187E1
4.736296520E-1,-3.014956415E-1,3.326023579E0,1.036570740E1,1.089041883E1
4.757049650E-1,-4.450650215E-1,3.239881754E0,1.027956581E1,1.078723273E1
4.777802770E-1,-5.216353536E-1,3.129812002E0,1.013121128E1,1.061646215E1
4.798556420E-1,-5.312066078E-1,3.019742250E0,9.872786522E0,1.033793681E1
4.819309540E-1,-5.503492355E-1,2.914458036E0,9.638289452E0,1.008432315E1
4.840063190E-1,-5.694918036E-1,2.861815929E0,9.413364410E0,9.855239259E0
4.860816310E-1,-6.269195080E-1,2.861815929E0,9.265008926E0,9.717170827E0
4.881569440E-1,-7.034898400E-1,2.895315409E0,9.183652878E0,9.654907014E0
4.902323080E-1,-7.992027402E-1,2.962314367E0,9.126225471E0,9.628188967E0
4.923076210E-1,-9.379864931E-1,3.048455954E0,9.083154678E0,9.626868716E0
4.943829860E-1,-1.038485050E0,3.192025423E0,9.111868858E0,9.710490801E0
4.964582980E-1,-1.134197950E0,3.330809116E0,9.164510727E0,9.816768879E0
4.985336630E-1,-1.229910851E0,3.464807272E0,9.241081238E0,9.945609714E0
5.006089750E-1,-1.330409408E0,3.603590965E0,9.360722542E0,1.011825002E1
5.026842880E-1,-1.435693622E0,3.732803345E0,9.509077072E0,1.031588987E1
5.047596520E-1,-1.512263894E0,3.828516245E0,9.681360245E0,1.052013379E1
5.068349650E-1,-1.545763373E0,3.890729666E0,9.839286804E0,1.069292881E1
5.089102770E-1,-1.560120344E0,3.924229145E0,9.973284721E0,1.083051051E1
5.109856420E-1,-1.545763373E0,3.933800459E0,1.010728264E1,1.095542481E1
5.130609540E-1,-1.497906923E0,3.919443607E0,1.018385315E1,1.101438279E1
5.151363190E-1,-1.440479279E0,3.862015724E0,1.021735287E1,1.101746094E1
5.172116310E-1,-1.339980721E0,3.775874138E0,1.021735287E1,1.097483820E1
5.192869440E-1,-1.205982566E0,3.675375462E0,1.016949654E1,1.088032346E1
5.213623080E-1,-1.062413216E0,3.565305710E0,1.009771156E1,1.076122230E1
5.234376210E-1,-9.284151793E-1,3.455235958E0,1.002592659E1,1.064517798E1
5.255129860E-1,-8.039883971E-1,3.359523058E0,9.968499184E0,1.055006012E1
5.275882980E-1,-7.274180651E-1,3.297309637E0,9.949356079E0,1.050671567E1
5.296636110E-1,-6.987041831E-1,3.278167009E0,9.958928108E0,1.050784543E1
5.317389750E-1,-7.130611539E-1,3.306880951E0,1.000678444E1,1.056312703E1
5.338142880E-1,-7.417750359E-1,3.345165968E0,1.007378292E1,1.064055769E1
5.358896520E-1,-7.704889178E-1,3.393022537E0,1.011685371E1,1.069845709E1
5.379649650E-1,-7.992027402E-1,3.450450182E0,1.015992451E1,1.075957236E1
5.400402770E-1,-8.518448472E-1,3.503092289E0,1.017428207E1,1.079413317E1
5.421156420E-1,-8.949156404E-1,3.589233875E0,1.018863869E1,1.083936493E1
5.441909540E-1,-9.044869542E-1,3.661018610E0,1.020778179E1,1.088209369E1
5.462663190E-1,-8.949156404E-1,3.694518089E0,1.018863869E1,1.087468143E1
5.483416310E-1,-8.327022791E-1,3.713660717E0,1.014556789E1,1.083592252E1
5.504169440E-1,-7.513462901E-1,3.742374659E0,1.010249710E1,1.079955263E1
5.524923080E-1,-6.652047038E-1,3.756731510E0,1.007378292E1,1.077203004E1
5.545676210E-1,-5.647061467E-1,3.809373617E0,1.002114105E1,1.073561775E1
5.566429860E-1,-4.642075896E-1,3.866801500E0,9.968499184E0,1.070227165E1
5.587182980E-1,-3.445664644E-1,3.909872293E0,9.877572060E0,1.062884082E1
5.607936630E-1,-2.249253243E-1,3.972085476E0,9.757930756E0,1.053780181E1
5.628689750E-1,-9.571290761E-2,4.058227062E0,9.623932838E0,1.044502040E1
5.649442880E-1,1.914258115E-2,4.144368649E0,9.475577354E0,1.034227848E1
5.670196520E-1,1.292124242E-1,4.240081787E0,9.336793900E0,1.025527717E1
5.690949650E-1,2.153540403E-1,4.359723091E0,9.198010445E0,1.018120616E1
5.711702770E-1,3.206382394E-1,4.474578381E0,9.068798065E0,1.011769534E1
5.732456420E-1,4.594219327E-1,4.551148891E0,8.953942299E0,1.005470574E1
5.753209540E-1,6.317051649E-1,4.584648132E0,8.815158844E0,9.956157660E0
5.773963190E-1,7.992027402E-1,4.584648132E0,8.642875671E0,9.816161337E0
5.794716310E-1,9.188438654E-1,4.661218643E0,8.508877754E0,9.745369871E0
5.815469440E-1,9.858429432E-1,4.771288395E0,8.403593063E0,9.713776589E0
5.836223080E-1,1.019342422E0,4.905286312E0,8.322237015E0,9.713934409E0
5.856976210E-1,1.071984529E0,4.991427898E0,8.269595146E0,9.718523920E0
5.877729860E-1,1.138983607E0,5.044070244E0,8.226524353E0,9.716770616E0
5.898482980E-1,1.225125194E0,5.063212872E0,8.216953278E0,9.729099521E0
5.919236630E-1,1.320838094E0,5.063212872E0,8.226524353E0,9.749689266E0
5.939989750E-1,1.406979680E0,5.034498692E0,8.236095428E0,9.754949349E0
5.960742880E-1,1.512263894E0,4.938786030E0,8.221738815E0,9.709559139E0
5.981496520E-1,1.641476393E0,4.780859470E0,8.188239098E0,9.622802167E0
6.002249650E-1,1.670190215E0,4.728217602E0,8.197810173E0,9.609873500E0
6.023003290E-1,1.593619823E0,4.804787636E0,8.293522835E0,9.716384584E0
6.043756420E-1,1.521835208E0,4.819144726E0,8.394021988E0,9.797945878E0
6.064568920E-1,1.488335729E0,4.776073933E0,8.461020470E0,9.829287504E0
6.085263190E-1,1.473978758E0,4.713860512E0,8.508877754E0,9.838399003E0
6.106016310E-1,1.473978758E0,4.627718925E0,8.566305161E0,9.847333646E0
6.126769960E-1,1.473978758E0,4.512863636E0,8.599804878E0,9.823196808E0
6.147523080E-1,1.483550072E0,4.374079704E0,8.652446747E0,9.808074673E0
6.168276210E-1,1.507478237E0,4.211368084E0,8.685946465E0,9.770044921E0
6.189029860E-1,1.569691658E0,4.000799656E0,8.705088615E0,9.708187142E0
6.209782980E-1,1.660618901E0,3.732803345E0,8.700303078E0,9.611802619E0
6.230536630E-1,1.689332843E0,3.560520172E0,8.724231720E0,9.573054291E0
6.251289750E-1,1.627119422E0,3.522234917E0,8.805587769E0,9.622475377E0
6.272042880E-1,1.540977836E0,3.570091486E0,8.944371223E0,9.753047856E0
6.292796520E-1,1.454836130E0,3.627519131E0,9.068798065E0,9.875147673E0
6.313549650E-1,1.402194023E0,3.704089403E0,9.140582085E0,9.961760248E0
6.334303290E-1,1.450050473E0,3.704089403E0,9.169296265E0,9.994944656E0
6.355056420E-1,1.545763373E0,3.656233072E0,9.126225471E0,9.952156351E0
6.375810060E-1,1.521835208E0,3.761517286E0,9.135796547E0,9.996388010E0
6.396563190E-1,1.469193101E0,3.885943890E0,9.255437851E0,1.014505880E1
6.417315790E-1,1.473978758E0,3.895515203E0,9.327222824E0,1.021492720E1
6.438069960E-1,1.536192179E0,3.838087559E0,9.399007797E0,1.026801588E1
6.458823080E-1,1.622333765E0,3.751945972E0,9.466006279E0,1.031088455E1
6.479576730E-1,1.703689694E0,3.661018610E0,9.513862610E0,1.033533732E1
6.500329860E-1,1.789831281E0,3.536591768E0,9.537791252E0,1.032862233E1
6.521082980E-1,1.875972986E0,3.393022537E0,9.533005714E0,1.029126205E1
6.541836630E-1,1.966900229E0,3.244667530E0,9.528220177E0,1.025590287E1
6.562589750E-1,2.057827473E0,3.081955671E0,9.528220177E0,1.022350646E1
6.583343400E-1,2.143969059E0,2.952743053E0,9.513862610E0,1.018964556E1
6.604096520E-1,2.201396942E0,2.837887764E0,9.504291534E0,1.016028115E1
6.624849650E-1,2.210968018E0,2.737389088E0,9.504291534E0,1.013475388E1
6.645603290E-1,2.206182480E0,2.665604353E0,9.523433685E0,1.013254543E1
6.666356420E-1,2.182254314E0,2.622533560E0,9.547362328E0,1.013864111E1
6.687109540E-1,2.139183521E0,2.598605394E0,9.590433121E0,1.016391970E1
6.707863190E-1,2.091326952E0,2.584248543E0,9.633503914E0,1.019099537E1
6.728616310E-1,2.067398787E0,2.560320139E0,9.671789169E0,1.021630475E1
6.749369960E-1,2.062613010E0,2.502892494E0,9.686145782E0,1.021470819E1
6.770123080E-1,2.043470621E0,2.440679073E0,9.686145782E0,1.019578867E1
6.790876210E-1,1.952543259E0,2.478964329E0,9.729216576E0,1.022816428E1
6.811629860E-1,1.871187329E0,2.512463808E0,9.781859398E0,1.027125064E1
6.832382980E-1,1.832902193E0,2.493321180E0,9.815358162E0,1.029161974E1
6.853136630E-1,1.813759565E0,2.431107759E0,9.805787086E0,1.026418380E1
6.873889750E-1,1.813759565E0,2.344966173E0,9.777072906E0,1.021664058E1
6.894643400E-1,1.804188251E0,2.234896421E0,9.724431038E0,1.013974439E1
6.915396520E-1,1.789831281E0,2.100898266E0,9.671789169E0,1.005787131E1
6.936149650E-1,1.775474429E0,1.952543259E0,9.600004196E0,9.956144595E0
6.956903290E-1,1.655833244E0,1.741974831E0,9.499505997E0,9.798820042E0
6.977656420E-1,1.263410330E0,1.708475351E0,9.547362328E0,9.780962177E0
6.998409540E-1,1.062413216E0,1.727617979E0,9.710074425E0,9.919623534E0
7.019163190E-1,8.997012973E-1,1.708475351E0,9.805787086E0,9.994088795E0
7.039916310E-1,7.369893789E-1,1.622333765E0,9.824930191E0,9.985207732E0
7.060669960E-1,5.742774606E-1,1.502692580E0,9.796216011E0,9.927423015E0
7.081423080E-1,4.833501875E-1,1.292124271E0,9.714859962E0,9.812324731E0
7.102176210E-1,4.067798555E-1,1.057627559E0,9.518648148E0,9.585859819E0
7.122929860E-1,2.344966233E-1,9.858429432E-1,9.399007797E0,9.453476744E0
7.143682980E-1,3.349951655E-2,9.810572863E-1,9.332008362E0,9.383494854E0
7.164436110E-1,-1.674975902E-1,9.714859724E-1,9.260223389E0,9.312549471E0
7.185189750E-1,-3.014956415E-1,9.140582681E-1,9.159725189E0,9.210155682E0
7.205942880E-1,-3.684946895E-1,9.044869542E-1,9.054440498E0,9.106963145E0
7.226696520E-1,-4.163511395E-1,1.019342422E0,9.068798065E0,9.135398491E0
7.247449650E-1,-4.211367965E-1,1.172483087E0,9.135796547E0,9.220349849E0
7.268203290E-1,-3.876372576E-1,1.311266780E0,9.236295700E0,9.336961040E0
7.288956420E-1,-2.679961324E-1,1.378265858E0,9.303294182E0,9.408651409E0
7.309709540E-1,-1.387837082E-1,1.426122308E0,9.322437286E0,9.431909813E0
7.330463190E-1,-6.221338734E-2,1.598405480E0,9.394221306E0,9.529436737E0
7.351216830E-1,-3.828516230E-2,1.837687731E0,9.528220177E0,9.703893120E0
7.371969960E-1,-5.264209956E-2,2.076970100E0,9.671789169E0,9.892425472E0
7.392723080E-1,-6.221338734E-2,2.287538528E0,9.786644936E0,1.005062795E1
7.413476730E-1,-1.914258115E-2,2.416750908E0,9.925428391E0,1.021543832E1
7.434229860E-1,5.742774159E-2,2.493321180E0,1.006421185E1,1.036862134E1
7.454982980E-1,1.962114573E-1,2.483749866E0,1.020299530E1,1.050279132E1
7.475736630E-1,3.637090325E-1,2.397608280E0,1.035613632E1,1.063627610E1
7.496489750E-1,5.599204898E-1,2.239681959E0,1.049491978E1,1.074583768E1
7.517243400E-1,7.800601721E-1,2.038684845E0,1.062891865E1,1.085074382E1
7.537996520E-1,9.906286001E-1,1.794616938E0,1.076770210E1,1.096108587E1
7.558749650E-1,1.210768223E0,1.493121386E0,1.090170002E1,1.106988864E1
7.579503290E-1,1.416550994E0,1.182054400E0,1.099262714E1,1.114637703E1
7.600256420E-1,1.603191137E0,8.374879360E-1,1.108833981E1,1.123489597E1
7.621010060E-1,1.775474429E0,5.024927258E-1,1.118405342E1,1.133524853E1
7.641763190E-1,1.957328916E0,1.866401732E-1,1.125583744E1,1.142627881E1
7.662516310E-1,2.062613010E0,-1.052841991E-1,1.132762241E1,1.151436002E1
7.683269960E-1,2.167897224E0,-3.541377485E-1,1.139462185E1,1.160442153E1
7.704023080E-1,2.254039049E0,-5.599204898E-1,1.147597694E1,1.170863996E1
7.724776730E-1,2.311466694E0,-7.369893789E-1,1.154776192E1,1.179986597E1
7.745529860E-1,2.340180635E0,-8.709874153E-1,1.162911797E1,1.189417711E1
7.766282980E-1,2.311466694E0,-9.284151793E-1,1.173440266E1,1.199587590E1
7.787036630E-1,2.206182480E0,-9.332008362E-1,1.187318611E1,1.211241732E1
7.807789750E-1,2.076970100E0,-8.997012973E-1,1.204546928E1,1.225628808E1
7.828542880E-1,1.957328916E0,-8.422735929E-1,1.222732353E1,1.241160755E1
7.849296520E-1,1.852044702E0,-7.848458290E-1,1.238046455E1,1.254280491E1
7.870049650E-1,1.756331801E0,-7.465606928E-1,1.251446247E1,1.265913999E1
7.890803290E-1,1.679761529E0,-7.178468108E-1,1.259581852E1,1.272758999E1
7.911556420E-1,1.622333765E0,-6.891329288E-1,1.263410378E1,1.275646696E1
7.932310060E-1,1.584048629E0,-6.795616150E-1,1.261496067E1,1.273217369E1
7.953063190E-1,1.588834286E0,-6.604190469E-1,1.256710434E1,1.268434701E1
7.973816310E-1,1.593619823E0,-6.317051649E-1,1.246182060E1,1.257917518E1
7.994569960E-1,1.622333765E0,-6.029912829E-1,1.230867958E1,1.242976904E1
8.015323080E-1,1.655833244E0,-5.599204898E-1,1.213161087E1,1.225688692E1
8.036075690E-1,1.713261008E0,-5.312066078E-1,1.195932770E1,1.209309566E1
8.056829860E-1,1.789831281E0,-5.312066078E-1,1.177747345E1,1.192453594E1
8.077582980E-1,1.842473388E0,-5.359922647E-1,1.158126163E1,1.173914890E1
8.098336630E-1,1.904686809E0,-5.551348329E-1,1.139462185E1,1.156604572E1
8.119089750E-1,1.928615093E0,-5.790630579E-1,1.118883896E1,1.136859655E1
8.139843400E-1,1.938186288E0,-6.317051649E-1,1.098305607E1,1.117063732E1
8.160596520E-1,1.923829436E0,-6.939185858E-1,1.076291656E1,1.095550162E1
8.181349650E-1,1.895115495E0,-7.513462901E-1,1.053320503E1,1.072867150E1
8.202103290E-1,1.837687731E0,-8.087740541E-1,1.031785107E1,1.051138727E1
8.222856420E-1,1.751546144E0,-8.709874153E-1,1.013121128E1,1.031833199E1
8.243610060E-1,1.646261930E0,-9.092726111E-1,9.997213364E0,1.017257244E1
8.264363190E-1,1.502692580E0,-9.092726111E-1,9.863214493E0,1.001837621E1
8.285116310E-1,1.330409408E0,-8.949156404E-1,9.772287369E0,9.902952268E0
8.305869960E-1,1.110269666E0,-8.231309652E-1,9.690931320E0,9.788993471E0
8.326623080E-1,8.614161611E-1,-7.130611539E-1,9.667003632E0,9.731467167E0
8.347376210E-1,6.077769399E-1,-5.934200287E-1,9.667003632E0,9.704251612E0
8.368129860E-1,3.637090325E-1,-4.642075896E-1,9.657432556E0,9.675421258E0
8.388882980E-1,1.292124242E-1,-3.254238665E-1,9.662218094E0,9.668560133E0
8.409636630E-1,-7.178468257E-2,-2.057827413E-1,9.671789169E0,9.674244431E0
8.430389750E-1,-2.297109663E-1,-1.052841991E-1,9.676574707E0,9.679873447E0
8.451143400E-1,-3.158525825E-1,-5.264209956E-2,9.681360245E0,9.686654233E0
8.471896520E-1,-3.302095234E-1,-5.264209956E-2,9.700503349E0,9.706264717E0
8.492649650E-1,-2.919243574E-1,-1.052841991E-1,9.705288887E0,9.710249069E0
8.513403290E-1,-1.962114573E-1,-1.866401732E-1,9.738788605E0,9.742552898E0
8.534156420E-1,-8.135596663E-2,-2.823530734E-1,9.796216011E0,9.800621929E0
8.554909540E-1,3.349951655E-2,-3.732803464E-1,9.891928673E0,9.899025876E0
8.575663190E-1,1.387837082E-1,-4.594219327E-1,1.002114105E1,1.003262665E1
8.596416310E-1,2.249253243E-1,-5.312066078E-1,1.018863869E1,1.020495616E1
8.617169960E-1,2.919243574E-1,-6.029912829E-1,1.036570740E1,1.038733403E1
8.637923080E-1,3.349951804E-1,-6.652047038E-1,1.057149029E1,1.059769437E1
8.658676210E-1,3.589234054E-1,-7.130611539E-1,1.078205872E1,1.081157123E1
8.679429860E-1,3.637090325E-1,-7.322037220E-1,1.096869946E1,1.099912607E1
8.700182980E-1,3.541377485E-1,-7.369893789E-1,1.114098263E1,1.117094718E1
8.720936630E-1,3.349951804E-1,-7.226324677E-1,1.127019501E1,1.129830584E1
8.741689750E-1,3.254238665E-1,-6.939185858E-1,1.136590767E1,1.139171984E1
8.762442880E-1,3.349951804E-1,-6.699903607E-1,1.144247818E1,1.146697064E1
8.783196520E-1,3.541377485E-1,-6.604190469E-1,1.144726372E1,1.147176593E1
8.803949650E-1,3.924229145E-1,-6.317051649E-1,1.140419292E1,1.142841474E1
8.824703290E-1,4.594219327E-1,-6.077769399E-1,1.130848026E1,1.133411607E1
8.845456420E-1,5.503492355E-1,-5.742774606E-1,1.117926693E1,1.120752818E1
8.866209540E-1,6.699903607E-1,-5.455635786E-1,1.100219822E1,1.103607232E1
8.886963190E-1,7.752745152E-1,-5.024927258E-1,1.081077290E1,1.085017788E1
8.907716310E-1,8.901300430E-1,-4.642075896E-1,1.060977554E1,1.065716460E1
8.928469960E-1,9.954141974E-1,-4.019941986E-1,1.040399265E1,1.045923094E1
8.949223080E-1,1.086341500E0,-3.206382394E-1,1.018385315E1,1.024664880E1
8.969976210E-1,1.177268744E0,-2.249253243E-1,9.978070259E0,1.004979797E1
8.990729860E-1,1.234696507E0,-1.148554832E-1,9.781859398E0,9.860144042E0
9.011482460E-1,1.263410330E0,9.571290575E-3,9.585647583E0,9.668554021E0
9.032236630E-1,1.272981644E0,1.339980662E-1,9.408578873E0,9.495251137E0
9.052989750E-1,1.277767301E0,2.440679073E-1,9.226723671E0,9.317976611E0
9.073742880E-1,1.263410330E0,3.493520916E-1,9.068798065E0,9.163042666E0
9.094496520E-1,1.301695466E0,4.977070987E-1,8.891729355E0,9.000276349E0
9.115249650E-1,1.430907965E0,7.130611539E-1,8.714659691E0,8.860092965E0
9.136003290E-1,1.502692580E0,7.369893789E-1,8.499305725E0,8.662530585E0
9.156756420E-1,1.531406522E0,5.982056856E-1,8.312665939E0,8.473692878E0
9.177509020E-1,1.584048629E0,4.642075896E-1,8.212167740E0,8.376419147E0
9.198263190E-1,1.679761529E0,3.876372576E-1,8.173882484E0,8.353694770E0
9.219016310E-1,1.737189293E0,3.158525825E-1,8.126026154E0,8.315641319E0
9.239769960E-1,1.655833244E0,1.052841991E-1,8.035098076E0,8.204612702E0
9.260523080E-1,1.560120344E0,-8.135596663E-2,7.992027760E0,8.143285700E0
9.281276210E-1,1.416550994E0,-1.483550072E-1,8.082955360E0,8.207483980E0
9.302029860E-1,1.373480201E0,-7.657032460E-2,8.298309326E0,8.411554467E0
9.322782980E-1,1.402194023E0,1.339980662E-1,8.647661209E0,8.761629298E0
9.343536630E-1,1.344766378E0,3.541377485E-1,9.025727272E0,9.132226615E0
9.364289750E-1,1.081555843E0,4.450650215E-1,9.312865257E0,9.386016472E0
9.385042880E-1,8.231309652E-1,5.024927258E-1,9.571290970E0,9.619753342E0
9.405796520E-1,7.561319470E-1,6.317051649E-1,9.820143700E0,9.869448273E0
9.426549650E-1,7.178468108E-1,7.274180651E-1,9.978070259E0,1.003027054E1
9.447303290E-1,6.364908218E-1,7.178468108E-1,1.001635551E1,1.006219670E1
9.468056420E-1,5.455635786E-1,6.269195080E-1,9.968499184E0,1.000308171E1
9.488809540E-1,5.790630579E-1,5.838487148E-1,9.925428391E0,9.959433823E0
9.509563190E-1,6.173482537E-1,5.264210105E-1,9.815358162E0,9.848832103E0
9.530316310E-1,6.364908218E-1,4.307080805E-1,9.667003632E0,9.697504278E0
9.551069960E-1,6.173482537E-1,3.062812984E-1,9.466006279E0,9.491059054E0
9.571823080E-1,6.412764788E-1,2.057827413E-1,9.279366493E0,9.303774749E0
9.592576210E-1,6.029912829E-1,1.244267747E-1,9.102297783E0,9.123097360E0
9.613329860E-1,5.503492355E-1,5.264209956E-2,8.939585686E0,8.956664988E0
9.634082980E-1,5.072783828E-1,2.871387079E-2,8.805587769E0,8.820234226E0
9.654836110E-1,4.785645306E-1,2.392822690E-2,8.671588898E0,8.684817245E0
9.675589750E-1,3.972085714E-1,0.000000000E0,8.571090698E0,8.580289646E0
9.696342880E-1,3.684946895E-1,1.914258115E-2,8.518448830E0,8.526436843E0
9.717096520E-1,3.397808075E-1,4.785645381E-2,8.523234367E0,8.530138646E0
9.737849650E-1,3.062812984E-1,8.614161611E-2,8.561519623E0,8.567429420E0
9.758602770E-1,2.823530734E-1,1.244267747E-1,8.633303642E0,8.638815721E0
9.779356420E-1,3.062812984E-1,1.627119333E-1,8.733802795E0,8.740686167E0
9.800109540E-1,3.349951804E-1,1.818545163E-1,8.843872070E0,8.852082582E0
9.820863190E-1,3.828516304E-1,2.153540403E-1,8.949156761E0,8.959930774E0
9.841616310E-1,3.972085714E-1,2.488535494E-1,9.040083885E0,9.052227316E0
9.862369960E-1,4.163511395E-1,2.440679073E-1,9.040083885E0,9.052957200E0
9.883123080E-1,4.785645306E-1,2.919243574E-1,9.035298347E0,9.052671433E0
9.903876210E-1,5.216353536E-1,3.493520916E-1,9.059226990E0,9.080955015E0
9.924629860E-1,5.407779217E-1,4.067798555E-1,9.035298347E0,9.060603006E0
9.945382980E-1,5.838487148E-1,4.881358147E-1,8.992227554E0,9.024373235E0
9.966136630E-1,5.934200287E-1,5.647061467E-1,8.963513374E0,9.000867312E0
9.986889750E-1,6.029912829E-1,6.508477330E-1,8.968298912E0,9.012080039E0
1.000764288E0,5.647061467E-1,7.082754970E-1,8.958727837E0,9.004407347E0
1.002839652E0,5.359922647E-1,7.657032609E-1,8.910871506E0,8.959755587E0
1.004914965E0,5.503492355E-1,8.327022791E-1,8.920442581E0,8.976111252E0
1.006990277E0,5.838487148E-1,9.188438654E-1,8.934800148E0,9.000878127E0
1.009065642E0,6.173482537E-1,9.762716293E-1,8.953942299E0,9.028139778E0
1.011140954E0,6.652047038E-1,1.048056364E0,8.910871506E0,8.996918941E0
1.013216319E0,7.082754970E-1,1.019342422E0,8.848658562E0,8.935293588E0
1.015291631E0,7.848458290E-1,9.954141974E-1,8.772088051E0,8.863202648E0
1.017366944E0,8.997012973E-1,9.762716293E-1,8.705088615E0,8.805744518E0
1.019442308E0,1.067198873E0,9.810572863E-1,8.709874153E0,8.829682588E0
1.021517621E0,1.268195987E0,9.858429432E-1,8.781659126E0,8.927359317E0
1.023592986E0,1.426122308E0,9.619147182E-1,8.786444664E0,8.953251621E0
1.025668298E0,1.564906001E0,9.092726111E-1,8.709874153E0,8.895932511E0
1.027743611E0,1.679761529E0,8.757730722E-1,8.628518105E0,8.834019581E0
1.029818975E0,1.775474429E0,8.757730722E-1,8.618947029E0,8.843389385E0
1.031894288E0,1.832902193E0,9.427721500E-1,8.642875671E0,8.885248992E0
1.033969652E0,1.823330879E0,9.667003751E-1,8.681160927E0,8.923093642E0
1.036044965E0,1.794616938E0,1.000199914E0,8.729017258E0,8.967541029E0
1.038120277E0,1.765903115E0,1.095912814E0,8.824729919E0,9.066162190E0
1.040195642E0,1.722832322E0,1.215553880E0,8.930013657E0,9.175558095E0
1.042270902E0,1.689332843E0,1.306481123E0,9.016156197E0,9.265625232E0
1.044346319E0,1.641476393E0,1.344766378E0,9.044869423E0,9.290452316E0
1.046421631E0,1.612762451E0,1.339980721E0,9.059226990E0,9.298717369E0
1.048496944E0,1.607976794E0,1.306481123E0,9.044869423E0,9.279124160E0
1.050572308E0,1.622333765E0,1.220339537E0,9.006584167E0,9.232537777E0
1.052647621E0,1.641476393E0,1.091127157E0,8.925228119E0,9.140279000E0
1.054722986E0,1.679761529E0,9.475577474E-1,8.858229637E0,9.065743035E0
1.056798298E0,1.698904037E0,8.039883971E-1,8.829515457E0,9.027348198E0
1.058873611E0,1.684547186E0,6.604190469E-1,8.805587769E0,8.989562197E0
1.060948975E0,1.612762451E0,5.168496966E-1,8.829515457E0,8.990466036E0
1.063024288E0,1.526620865E0,3.732803464E-1,8.896514893E0,9.034261825E0
1.065099652E0,1.426122308E0,2.344966233E-1,9.001798630E0,9.117082432E0
1.067174965E0,1.316052437E0,1.004985496E-1,9.111868858E0,9.206967365E0
1.069250277E0,1.205982566E0,-2.871387079E-2,9.250652313E0,9.328975649E0
1.071325590E0,1.067198873E0,-1.627119333E-1,9.399007797E0,9.460799976E0
1.073400954E0,8.853443861E-1,-3.062812984E-1,9.518648148E0,9.564638282E0
1.075476267E0,7.082754970E-1,-4.642075896E-1,9.628718376E0,9.665886428E0
1.077551579E0,5.359922647E-1,-6.173482537E-1,9.724431038E0,9.758737909E0
1.079626944E0,3.924229145E-1,-7.609176040E-1,9.829715729E0,9.866929748E0
1.081702308E0,2.727817893E-1,-8.949156404E-1,9.954142570E0,9.998011713E0
1.083777621E0,1.674975902E-1,-1.009771109E0,1.010728264E1,1.015897906E1
1.085852933E0,5.264209956E-2,-1.119840980E0,1.023649502E1,1.029770097E1
1.087928298E0,-5.264209956E-2,-1.205982566E0,1.037527943E1,1.044526631E1
1.090003611E0,-1.627119333E-1,-1.258624673E0,1.050449181E1,1.058087706E1
1.092078975E0,-2.823530734E-1,-1.268195987E0,1.060977554E1,1.068903089E1
1.094154288E0,-4.354937077E-1,-1.268195987E0,1.065763187E1,1.074165225E1
1.096229600E0,-6.412764788E-1,-1.268195987E0,1.070548820E1,1.079939972E1
1.098304965E0,-8.183453679E-1,-1.239482164E0,1.072941685E1,1.083173075E1
1.100380277E0,-9.858429432E-1,-1.182054400E0,1.073898792E1,1.084873267E1
1.102455642E0,-1.119840980E0,-1.124626637E0,1.073420238E1,1.085089534E1
1.104530954E0,-1.220339537E0,-1.043270707E0,1.069591713E1,1.081574249E1
1.106606267E0,-1.316052437E0,-9.571290612E-1,1.064327526E1,1.076695864E1
1.108681631E0,-1.426122308E0,-8.901300430E-1,1.057627583E1,1.070905069E1
1.110756944E0,-1.550549030E0,-8.135597110E-1,1.051406288E1,1.065887424E1
1.112832256E0,-1.646261930E0,-7.322037220E-1,1.040399265E1,1.055885239E1
1.114907621E0,-1.765903115E0,-6.556333899E-1,1.026042366E1,1.043190120E1
1.116982933E0,-1.875972986E0,-5.934200287E-1,1.008814049E1,1.027822944E1
1.119058298E0,-1.981257200E0,-5.312066078E-1,9.882357597E0,1.009299521E1
1.121133611E0,-2.062613010E0,-4.785645306E-1,9.676574707E0,9.905528482E0
1.123208923E0,-2.091326952E0,-4.402793646E-1,9.489934921E0,9.727608090E0
1.125284288E0,-2.110469580E0,-4.067798555E-1,9.312865257E0,9.557667655E0
1.127359600E0,-2.081755638E0,-3.541377485E-1,9.154939651E0,9.395320117E0
1.129434913E0,-2.048256159E0,-2.823530734E-1,9.030512810E0,9.264191177E0
1.131510277E0,-2.062613010E0,-1.962114573E-1,8.934800148E0,9.171887758E0
1.133585590E0,-2.086541414E0,-8.614161611E-2,8.886942863E0,9.129010292E0
1.135660954E0,-2.124826431E0,1.914258115E-2,8.824729919E0,9.076954993E0
1.137736267E0,-2.153540373E0,9.571290761E-2,8.743373871E0,9.005192044E0
1.139811631E0,-2.163111687E0,1.483550072E-1,8.666803360E0,8.933898469E0
1.141886944E0,-2.187039852E0,1.531406492E-1,8.575876236E0,8.851680552E0
1.143962256E0,-2.201396942E0,1.196411327E-1,8.484949112E0,8.766688310E0
1.146037621E0,-2.158325911E0,6.221338734E-2,8.422736168E0,8.695097803E0
1.148112933E0,-2.091326952E0,-1.435693540E-2,8.350951195E0,8.608846636E0
1.150188298E0,-1.990828395E0,-1.196411327E-1,8.288737297E0,8.525308069E0
1.152263611E0,-1.890329838E0,-2.392822653E-1,8.264809608E0,8.481608383E0
1.154338923E0,-1.775474429E0,-3.493520916E-1,8.260024071E0,8.455906455E0
1.156414288E0,-1.622333765E0,-4.881358147E-1,8.274380684E0,8.446041624E0
1.158489600E0,-1.473978758E0,-6.364908218E-1,8.327022552E0,8.480391414E0
1.160564913E0,-1.306481123E0,-7.896314859E-1,8.413164139E0,8.550540429E0
1.162640277E0,-1.129412293E0,-9.523434043E-1,8.532805443E0,8.659751660E0
1.164715590E0,-9.284151793E-1,-1.105484009E0,8.705088615E0,8.823979683E0
1.166790954E0,-7.417750359E-1,-1.253839016E0,8.891729355E0,9.010282648E0
1.168866267E0,-5.694918036E-1,-1.378265858E0,9.092725754E0,9.214206386E0
1.170941631E0,-3.876372576E-1,-1.469193101E0,9.336793900E0,9.459625327E0
1.173016944E0,-1.962114573E-1,-1.555334687E0,9.595218658E0,9.722437247E0
1.175092256E0,-2.871387079E-2,-1.646261930E0,9.824930191E0,9.961940378E0
1.177167621E0,8.135596663E-2,-1.775474429E0,9.982855797E0,1.013983916E1
1.179242933E0,1.435693651E-1,-1.871187329E0,1.012164021E1,1.029415148E1
1.181318246E0,2.009970993E-1,-1.942971945E0,1.028913784E1,1.047291255E1
1.183393611E0,3.014956415E-1,-1.952543259E0,1.051884842E1,1.070277987E1
1.185468923E0,4.354937077E-1,-1.919043779E0,1.075334454E1,1.093191669E1
1.187544236E0,5.934200287E-1,-1.885544300E0,1.090648556E1,1.108417123E1
1.189619600E0,7.800601721E-1,-1.866401672E0,1.096391296E1,1.114896123E1
1.191694913E0,9.714859724E-1,-1.847259045E0,1.097348499E1,1.117020697E1
1.193770277E0,1.138983607E0,-1.832902193E0,1.092084217E1,1.113200826E1
1.195845590E0,1.277767301E0,-1.789831281E0,1.084905815E1,1.106969955E1
1.197920954E0,1.392622828E0,-1.722832322E0,1.079162979E1,1.101666116E1
1.199996267E0,1.493121386E0,-1.651047587E0,1.073898792E1,1.096728003E1
1.202071579E0,1.550549030E0,-1.531406522E0,1.068156052E1,1.090161196E1
1.204146944E0,1.536192179E0,-1.406979680E0,1.061934662E1,1.082173742E1
1.206222256E0,1.540977836E0,-1.258624673E0,1.057149029E1,1.075709792E1
1.208297569E0,1.560120344E0,-1.119840980E0,1.052841949E1,1.070213233E1
1.210372933E0,1.560120344E0,-9.858429432E-1,1.042313576E1,1.058525488E1
1.212448246E0,1.617548108E0,-8.614161611E-1,1.026042366E1,1.042280161E1
1.214523611E0,1.713261008E0,-7.513462901E-1,1.006421185E1,1.023660806E1
1.216598923E0,1.785045743E0,-6.652047038E-1,9.848857880E0,1.003139507E1
1.218674236E0,1.832902193E0,-5.838487148E-1,9.614361763E0,9.804915190E0
1.220749600E0,1.852044702E0,-4.977070987E-1,9.346364975E0,9.541085901E0
1.222824913E0,1.823330879E0,-4.211367965E-1,9.078369141E0,9.269232867E0
1.224900277E0,1.765903115E0,-3.397808075E-1,8.824729919E0,9.006093657E0
1.226975590E0,1.694118381E0,-2.392822653E-1,8.590232849E0,8.758960754E0
1.229050902E0,1.593619823E0,-1.244267747E-1,8.374878883E0,8.526060197E0
1.231126267E0,1.459621787E0,-9.571290575E-3,8.207381248E0,8.336167844E0
1.233201579E0,1.325623751E0,1.148554832E-1,8.059026718E0,8.168132085E0
1.235276944E0,1.191625714E0,2.153540403E-1,7.929814339E0,8.021739503E0
1.237352256E0,1.086341500E0,3.254238665E-1,7.805387497E0,7.887338748E0
1.239427569E0,1.000199914E0,3.972085714E-1,7.719245911E0,7.793903511E0
1.241502933E0,9.427721500E-1,4.450650215E-1,7.714460373E0,7.784587404E0
1.243578246E0,9.379864931E-1,4.498506486E-1,7.791030407E0,7.860174239E0
1.245653558E0,9.379864931E-1,4.546363056E-1,7.939385414E0,8.007518566E0
1.247728923E0,9.523434043E-1,4.737788737E-1,8.135597229E0,8.204838003E0
1.249804236E0,9.140582681E-1,5.024927258E-1,8.293522835E0,8.358858921E0
1.251879600E0,7.704889178E-1,5.120640397E-1,8.465806961E0,8.516205156E0
1.253954913E0,5.455635786E-1,5.072783828E-1,8.618947029E0,8.651081948E0
1.256030225E0,2.919243574E-1,4.929214716E-1,8.786444664E0,8.805100865E0
1.258105590E0,6.699903309E-2,4.689932466E-1,8.925228119E0,8.937792821E0
1.260180902E0,-1.244267747E-1,4.163511395E-1,9.035298347E0,9.045741900E0
1.262256267E0,-2.727817893E-1,3.397808075E-1,9.131011009E0,9.141401586E0
1.264331579E0,-3.972085714E-1,2.488535494E-1,9.217152596E0,9.229063046E0
1.266406892E0,-5.168496966E-1,1.435693651E-1,9.303294182E0,9.318746075E0
1.268482256E0,-6.173482537E-1,4.307080805E-2,9.403793335E0,9.424134074E0
1.270557569E0,-7.178468108E-1,-4.307080805E-2,9.518648148E0,9.545775070E0
1.272632881E0,-7.992027402E-1,-1.292124242E-1,9.657432556E0,9.691306643E0
1.274708246E0,-8.518448472E-1,-2.057827413E-1,9.791430473E0,9.830569510E0
1.276783558E0,-8.805587292E-1,-2.775674164E-1,9.920642853E0,9.963512531E0
1.278858923E0,-8.662018180E-1,-3.445664644E-1,1.002592659E1,1.006917254E1
1.280934236E0,-8.279166222E-1,-4.019941986E-1,1.007856941E1,1.012050427E1
1.283009548E0,-7.704889178E-1,-4.498506486E-1,1.007378292E1,1.011321517E1
1.285084913E0,-7.034898400E-1,-4.737788737E-1,1.005464077E1,1.009035011E1
1.287160225E0,-5.982056856E-1,-4.594219327E-1,1.004506969E1,1.007334819E1
1.289235590E0,-4.737788737E-1,-3.972085714E-1,1.002114105E1,1.004019467E1
1.291310902E0,-3.445664644E-1,-3.110669553E-1,9.987641335E0,9.998423282E0
1.293386215E0,-2.153540403E-1,-2.153540403E-1,9.949356079E0,9.954016331E0
1.295461579E0,-9.092725813E-2,-1.004985496E-1,9.877572060E0,9.878501785E0
1.297536892E0,2.392822690E-2,9.571290575E-3,9.796216011E0,9.796249910E0
1.299612256E0,1.387837082E-1,1.100698411E-1,9.690931320E0,9.692550033E0
1.301687569E0,2.297109663E-1,2.201396823E-1,9.595218658E0,9.600492160E0
1.303762881E0,3.158525825E-1,3.302095234E-1,9.494720459E0,9.505709746E0
1.305838246E0,4.067798555E-1,4.402793646E-1,9.399007797E0,9.418102959E0
1.307913558E0,4.977070987E-1,5.407779217E-1,9.308079720E0,9.337049919E0
1.309988871E0,5.742774606E-1,6.077769399E-1,9.212367058E0,9.250237522E0
1.312064236E0,6.269195080E-1,6.795616150E-1,9.111868858E0,9.158656351E0
1.314139548E0,6.604190469E-1,7.082754970E-1,9.001798630E0,9.053738789E0
1.316214913E0,5.886343718E-1,7.226324677E-1,8.877371788E0,8.926164796E0
1.318290225E0,6.125625968E-1,7.274180651E-1,8.752944946E0,8.804454282E0
1.320365538E0,7.178468108E-1,6.843472719E-1,8.609375954E0,8.666313492E0
1.322440902E0,7.513462901E-1,6.460621357E-1,8.475378036E0,8.533109070E0
1.324516215E0,7.130611539E-1,6.173482537E-1,8.374878883E0,8.427821272E0
1.326591579E0,7.513462901E-1,5.934200287E-1,8.312665939E0,8.367621143E0
1.328666892E0,7.848458290E-1,5.742774606E-1,8.283951759E0,8.340841344E0
1.330742204E0,7.513462901E-1,5.599204898E-1,8.288737297E0,8.341534522E0
1.332817569E0,6.556333899E-1,5.503492355E-1,8.327022552E0,8.370904611E0
1.334892881E0,5.216353536E-1,5.120640397E-1,8.370093346E0,8.401950704E0
1.336968246E0,3.684946895E-1,4.689932466E-1,8.427521706E0,8.448601369E0
1.339043558E0,2.392822653E-1,4.067798555E-1,8.480163574E0,8.493285589E0
1.341118871E0,1.100698411E-1,3.158525825E-1,8.528019905E0,8.534576833E0
1.343194236E0,0.000000000E0,2.057827413E-1,8.575876236E0,8.578344814E0
1.345269548E0,-1.100698411E-1,7.657032460E-2,8.614161491E0,8.615204965E0
1.347344913E0,-2.057827413E-1,-4.785645381E-2,8.642875671E0,8.645457573E0
1.349420225E0,-3.062812984E-1,-1.579262912E-1,8.681160927E0,8.687997697E0
1.351495538E0,-4.067798555E-1,-2.679961324E-1,8.724231720E0,8.737820717E0
1.353570902E0,-5.024927258E-1,-3.397808075E-1,8.810373306E0,8.831230250E0
1.355646215E0,-5.742774606E-1,-3.780659735E-1,8.882157326E0,8.908728711E0
1.357721527E0,-6.364908218E-1,-3.876372576E-1,8.958727837E0,8.989671165E0
1.359796892E0,-6.987041831E-1,-3.780659735E-1,9.020941734E0,9.055855078E0
1.361872204E0,-7.465606928E-1,-3.493520916E-1,9.107083321E0,9.144307867E0
1.363947569E0,-7.848458290E-1,-2.967100143E-1,9.174081802E0,9.212371938E0
1.366022881E0,-8.135597110E-1,-2.727817893E-1,9.164510727E0,9.204593754E0
1.368098194E0,-8.183453679E-1,-2.775674164E-1,9.049654961E0,9.090818870E0
1.370173558E0,-7.992027402E-1,-2.536391914E-1,8.973084450E0,9.012175231E0
1.372248871E0,-7.609176040E-1,-1.866401732E-1,8.920442581E0,8.954782298E0
1.374324236E0,-7.369893789E-1,-1.100698411E-1,8.886942863E0,8.918128849E0
1.376399548E0,-6.939185858E-1,4.785645287E-3,8.872586250E0,8.899681605E0
1.378474861E0,-6.364908218E-1,1.483550072E-1,8.925228119E0,8.949124357E0
1.380550225E0,-5.790630579E-1,3.014956415E-1,9.044869423E0,9.068399888E0
1.382625538E0,-5.120640397E-1,4.402793646E-1,9.198010445E0,9.222768112E0
1.384700850E0,-4.450650215E-1,5.742774606E-1,9.336793900E0,9.365019904E0
1.386776215E0,-3.684946895E-1,6.891329288E-1,9.427721024E0,9.460053712E0
1.388851527E0,-2.967100143E-1,7.752745152E-1,9.470791817E0,9.507101821E0
1.390926892E0,-2.057827413E-1,8.422735929E-1,9.480362892E0,9.519929197E0
1.393002204E0,-1.244267747E-1,8.949156404E-1,9.456435204E0,9.499501186E0
1.395077517E0,-3.349951655E-2,9.140582681E-1,9.394221306E0,9.438644960E0
1.397152829E0,4.307080805E-2,9.188438654E-1,9.265008926E0,9.310559572E0
1.399228194E0,1.052841991E-1,9.140582681E-1,9.121439934E0,9.167728931E0
1.401303506E0,1.579262912E-1,8.997012973E-1,8.997013092E0,9.043265324E0
1.403378871E0,1.962114573E-1,8.805587292E-1,8.867800713E0,8.913572353E0
1.405454183E0,2.344966233E-1,8.566305041E-1,8.738588333E0,8.783605783E0
1.407529548E0,2.536391914E-1,8.422735929E-1,8.628518105E0,8.673239437E0
1.409604861E0,2.775674164E-1,8.183453679E-1,8.528019905E0,8.571689233E0
1.411680225E0,2.919243574E-1,7.992027402E-1,8.451449394E0,8.494171043E0
1.413755538E0,2.967100143E-1,7.657032609E-1,8.360522270E0,8.400754189E0
1.415830850E0,2.727817893E-1,7.178468108E-1,8.288737297E0,8.324234495E0
1.417906215E0,2.392822653E-1,6.747759581E-1,8.221738815E0,8.252852097E0
1.419981527E0,1.914258152E-1,6.412764788E-1,8.173882484E0,8.201233702E0
1.422056840E0,1.483550072E-1,5.982056856E-1,8.116454124E0,8.139821055E0
1.424132204E0,1.196411327E-1,5.359922647E-1,8.073383331E0,8.092040541E0
1.426207517E0,1.100698411E-1,4.498506486E-1,8.039883614E0,8.053211129E0
1.428282881E0,1.244267747E-1,3.302095234E-1,8.001599312E0,8.009376499E0
1.430358194E0,1.627119333E-1,1.962114573E-1,7.987242222E0,7.991308555E0
1.432433506E0,2.249253243E-1,7.657032460E-2,8.006384850E0,8.009909661E0
1.434508871E0,2.823530734E-1,-3.349951655E-2,8.044670105E0,8.049693322E0
1.436584183E0,3.110669553E-1,-9.571290761E-2,8.140382767E0,8.146886227E0
1.438659496E0,3.206382394E-1,-1.339980662E-1,8.255238533E0,8.262549703E0
1.440734861E0,2.871387303E-1,-1.483550072E-1,8.394021988E0,8.400241841E0
1.442810173E0,2.297109663E-1,-1.435693651E-1,8.551948547E0,8.556237681E0
1.444885538E0,1.674975902E-1,-1.531406492E-1,8.690732002E0,8.693694855E0
1.446960850E0,1.196411327E-1,-1.627119333E-1,8.829515457E0,8.831824975E0
1.449036163E0,1.100698411E-1,-1.962114573E-1,8.953942299E0,8.956768223E0
1.451111527E0,1.196411327E-1,-2.536391914E-1,9.035298347E0,9.039649499E0
1.453186840E0,1.579262912E-1,-3.014956415E-1,9.116654396E0,9.123005410E0
1.455262152E0,1.962114573E-1,-3.445664644E-1,9.198010445E0,9.206553162E0
1.457337517E0,2.153540403E-1,-3.876372576E-1,9.288937569E0,9.299516179E0
1.459412829E0,2.153540403E-1,-3.972085714E-1,9.403793335E0,9.414641847E0
1.461488194E0,2.105683982E-1,-3.876372576E-1,9.528220177E0,9.538426570E0
1.463563506E0,2.105683982E-1,-3.637090325E-1,9.633503914E0,9.642666694E0
1.465638819E0,2.297109663E-1,-3.349951804E-1,9.762716293E0,9.771162588E0
1.467714183E0,2.536391914E-1,-2.919243574E-1,9.877572060E0,9.885139476E0
1.469789496E0,2.919243574E-1,-2.536391914E-1,9.968499184E0,9.975997627E0
1.471864861E0,3.445664644E-1,-2.440679073E-1,1.003071213E1,1.003959566E1
1.473940173E0,3.780659735E-1,-2.632105052E-1,1.007378292E1,1.008431039E1
1.476015486E0,4.163511395E-1,-3.014956415E-1,1.008814049E1,1.010122895E1
1.478090850E0,4.546363056E-1,-3.397808075E-1,1.006421185E1,1.008020363E1
1.480166163E0,4.833501875E-1,-3.876372576E-1,1.005464077E1,1.007371287E1
1.482241527E0,4.881358147E-1,-4.211367965E-1,1.004028416E1,1.006096112E1
1.484316840E0,4.881358147E-1,-4.594219327E-1,1.002114105E1,1.004353589E1
1.486392152E0,4.833501875E-1,-4.785645306E-1,1.000678444E1,1.002987469E1
1.488467517E0,4.737788737E-1,-4.833501875E-1,9.992427826E0,1.001532364E1
1.490542829E0,4.546363056E-1,-4.881358147E-1,1.001156998E1,1.003376819E1
1.492618142E0,4.259224236E-1,-4.977070987E-1,1.000199890E1,1.002342777E1
1.494693506E0,3.972085714E-1,-4.929214716E-1,9.982855797E0,1.000290738E1
1.496768819E0,3.589234054E-1,-4.881358147E-1,9.930213928E0,9.948680880E0
1.498844131E0,3.206382394E-1,-4.785645306E-1,9.877572060E0,9.894355092E0
1.500919496E0,2.727817893E-1,-4.642075896E-1,9.777072906E0,9.791887112E0
1.502994808E0,2.153540403E-1,-4.642075896E-1,9.657432556E0,9.670980800E0
1.505070173E0,1.483550072E-1,-4.594219327E-1,9.494720459E0,9.506986605E0
1.507145486E0,5.742774159E-2,-4.546363056E-1,9.317651749E0,9.328913454E0
1.509220850E0,-1.435693540E-2,-4.642075896E-1,9.135796547E0,9.147593856E0
1.511296163E0,-6.699903309E-2,-4.785645306E-1,8.963513374E0,8.976529669E0
1.513371475E0,-1.052841991E-1,-4.785645306E-1,8.805587769E0,8.819211117E0
1.515446840E0,-1.339980662E-1,-4.689932466E-1,8.676374435E0,8.690073848E0
1.517522152E0,-1.531406492E-1,-4.450650215E-1,8.566305161E0,8.579226016E0
1.519597465E0,-1.674975902E-1,-4.115654826E-1,8.461020470E0,8.472680153E0
1.521672829E0,-2.009970993E-1,-3.780659735E-1,8.360522270E0,8.371479340E0
1.523748142E0,-2.297109663E-1,-3.254238665E-1,8.274380684E0,8.283963032E0
1.525823506E0,-2.871387303E-1,-2.919243574E-1,8.178668022E0,8.188911961E0
1.527898819E0,-3.589234054E-1,-2.344966233E-1,8.097311974E0,8.108654381E0
1.529974183E0,-4.354937077E-1,-1.722832322E-1,8.015955925E0,8.029625500E0
1.532049496E0,-5.359922647E-1,-1.148554832E-1,7.948956966E0,7.967835110E0
1.534124808E0,-6.604190469E-1,-4.785645381E-2,7.910671711E0,7.938335498E0
1.536200173E0,-7.992027402E-1,4.785645381E-2,7.910671711E0,7.951084340E0
1.538275433E0,-9.332008362E-1,1.627119333E-1,7.944170952E0,8.000449430E0
1.540350798E0,-1.067198873E0,2.919243574E-1,8.015955925E0,8.091951721E0
1.542426111E0,-1.172483087E0,4.211367965E-1,8.106883049E0,8.202050083E0
1.544501475E0,-1.249053478E0,5.599204898E-1,8.226524353E0,8.339625200E0
1.546576788E0,-1.301695466E0,6.795616150E-1,8.341380119E0,8.469642104E0
1.548652152E0,-1.316052437E0,7.848458290E-1,8.441878319E0,8.579818561E0
1.550727465E0,-1.301695466E0,8.614161611E-1,8.504091263E0,8.646156203E0
1.552802829E0,-1.277767301E0,9.236295223E-1,8.551948547E0,8.696068349E0
1.554878142E0,-1.229910851E0,9.762716293E-1,8.566305161E0,8.709039620E0
1.556953454E0,-1.148554921E0,1.004985452E0,8.513663292E0,8.649372047E0
1.559028819E0,-1.048056364E0,1.014556766E0,8.422736168E0,8.548112782E0
1.561104131E0,-9.475577474E-1,1.033699393E0,8.327022552E0,8.444270526E0
1.563179444E0,-8.470591903E-1,1.048056364E0,8.207381248E0,8.317273494E0
1.565254808E0,-7.561319470E-1,1.057627559E0,8.068597794E0,8.172672875E0
1.567330121E0,-6.556333899E-1,1.062413216E0,7.948956966E0,8.046396326E0
1.569405486E0,-5.694918036E-1,1.076770186E0,7.858029366E0,7.951879052E0
1.571480798E0,-4.642075896E-1,1.081555843E0,7.776673794E0,7.865234073E0
1.573556111E0,-3.637090325E-1,1.095912814E0,7.733603001E0,7.819330184E0
1.575631475E0,-2.679961324E-1,1.119840980E0,7.704888821E0,7.790454254E0
1.577706788E0,-1.722832322E-1,1.119840980E0,7.714460373E0,7.797219003E0
1.579782152E0,-9.571290761E-2,1.134197950E0,7.762316704E0,7.845325141E0
1.581857465E0,-2.392822690E-2,1.162911773E0,7.834101200E0,7.919979669E0
1.583932725E0,3.828516230E-2,1.182054400E0,7.963313580E0,8.050657211E0
1.586008142E0,9.571290761E-2,1.205982566E0,8.126026154E0,8.215586160E0
1.588083454E0,1.339980662E-1,1.234696507E0,8.327022552E0,8.419129144E0
1.590158767E0,1.722832322E-1,1.268195987E0,8.513663292E0,8.609324319E0
1.592234131E0,1.962114573E-1,1.277767301E0,8.662017822E0,8.757953012E0
1.594309444E0,2.392822653E-1,1.244267821E0,8.796015739E0,8.886807712E0
1.596384808E0,3.158525825E-1,1.210768223E0,8.934800148E0,9.021994027E0
1.598460121E0,3.972085714E-1,1.186840057E0,9.054440498E0,9.140528251E0
1.600535433E0,4.689932466E-1,1.138983607E0,9.150154114E0,9.232689675E0
1.602610798E0,5.407779217E-1,1.076770186E0,9.188439369E0,9.267108116E0
1.604686111E0,5.886343718E-1,1.028913736E0,9.207581520E0,9.283572122E0
1.606761423E0,6.221339107E-1,9.619147182E-1,9.193224907E0,9.264324839E0
1.608836788E0,6.173482537E-1,9.044869542E-1,9.178867340E0,9.243961335E0
1.610912100E0,5.886343718E-1,8.374879360E-1,9.154939651E0,9.211991994E0
1.612987465E0,5.742774606E-1,7.609176040E-1,9.150154114E0,9.199679913E0
1.615062777E0,5.455635786E-1,6.891329288E-1,9.145368576E0,9.187508378E0
1.617138090E0,5.120640397E-1,6.221339107E-1,9.183652878E0,9.218933798E0
1.619213454E0,4.833501875E-1,5.742774606E-1,9.221938133E0,9.252435622E0
1.621288767E0,4.067798555E-1,5.407779217E-1,9.293723106E0,9.318326019E0
1.623364131E0,3.110669553E-1,5.312066078E-1,9.403793335E0,9.423920214E0
1.625439444E0,1.962114573E-1,5.455635786E-1,9.552147865E0,9.569726610E0
1.627514756E0,6.699903309E-2,5.934200287E-1,9.714859962E0,9.733197845E0
1.629590121E0,-5.264209956E-2,6.556333899E-1,9.896714211E0,9.918547197E0
1.631665433E0,-1.674975902E-1,7.274180651E-1,1.004506969E1,1.007276614E1
1.633740746E0,-2.536391914E-1,7.848458290E-1,1.016949654E1,1.020289055E1
1.635816111E0,-3.302095234E-1,8.279166222E-1,1.026999474E1,1.030860205E1
1.637891423E0,-4.019941986E-1,8.470591903E-1,1.035135078E1,1.039372752E1
1.639966788E0,-4.833501875E-1,8.422735929E-1,1.040399265E1,1.044921602E1
1.642042100E0,-5.599204898E-1,8.327022791E-1,1.043749237E1,1.048561639E1
1.644117413E0,-6.269195080E-1,8.039883971E-1,1.044706345E1,1.049669282E1
1.646192777E0,-6.843472719E-1,7.657032609E-1,1.042792130E1,1.047836701E1
1.648268090E0,-7.417750359E-1,7.034898400E-1,1.039442158E1,1.044457410E1
1.650343454E0,-7.896314859E-1,6.221339107E-1,1.036092186E1,1.040957589E1
1.652418767E0,-8.183453679E-1,5.312066078E-1,1.034177971E1,1.038769836E1
1.654494079E0,-8.327022791E-1,4.259224236E-1,1.036092186E1,1.040305267E1
1.656569444E0,-8.566305041E-1,3.349951804E-1,1.037527943E1,1.041597143E1
1.658644756E0,-8.805587292E-1,2.584248483E-1,1.039442158E1,1.043485347E1
1.660720069E0,-8.757730722E-1,1.914258152E-1,1.041835022E1,1.045684673E1
1.662795433E0,-8.518448472E-1,1.244267747E-1,1.042313576E1,1.045862709E1
1.664870746E0,-8.039883971E-1,6.699903309E-2,1.041356373E1,1.044476882E1
1.666946111E0,-7.369893789E-1,-4.785645287E-3,1.038006496E1,1.040619647E1
1.669021423E0,-6.364908218E-1,-8.614161611E-2,1.030349445E1,1.032349451E1
1.671096736E0,-5.168496966E-1,-1.722832322E-1,1.020778179E1,1.022231012E1
1.673172100E0,-4.163511395E-1,-2.440679073E-1,1.009292603E1,1.010445808E1
1.675247413E0,-3.302095234E-1,-2.967100143E-1,9.987641335E0,9.997502418E0
1.677322725E0,-2.488535494E-1,-3.349951804E-1,9.868000984E0,9.876821011E0
1.679398090E0,-1.818545163E-1,-3.589234054E-1,9.781859398E0,9.790131274E0
1.681473402E0,-1.292124242E-1,-3.493520916E-1,9.710074425E0,9.717216066E0
1.683548767E0,-8.135596663E-2,-3.254238665E-1,9.667003632E0,9.672821651E0
1.685624079E0,-4.307080805E-2,-2.727817893E-1,9.633503914E0,9.637461422E0
1.687699392E0,-4.785645287E-3,-1.866401732E-1,9.643074989E0,9.644882203E0
1.689774756E0,3.349951655E-2,-1.148554832E-1,9.652647018E0,9.653388445E0
1.691850069E0,5.264209956E-2,-1.914258115E-2,9.686145782E0,9.686307746E0
1.693925381E0,8.135596663E-2,6.221338734E-2,9.734002113E0,9.734540895E0
1.696000746E0,1.100698411E-1,1.387837082E-1,9.781859398E0,9.783463066E0
1.698076058E0,1.339980662E-1,2.105683982E-1,9.834501266E0,9.837667899E0
1.700151423E0,1.770688742E-1,2.775674164E-1,9.882357597E0,9.887840449E0
1.702226736E0,2.440679073E-1,3.349951804E-1,9.939785004E0,9.948422831E0
1.704302048E0,3.158525825E-1,3.732803464E-1,9.987641335E0,9.999604017E0
1.706377413E0,3.924229145E-1,4.259224236E-1,1.004028416E1,1.005697328E1
1.708452725E0,4.498506486E-1,4.785645306E-1,1.010728264E1,1.012860069E1
1.710528090E0,4.977070987E-1,5.359922647E-1,1.017906761E1,1.020531320E1
1.712603402E0,5.455635786E-1,5.934200287E-1,1.026520920E1,1.029681052E1
1.714678715E0,5.694918036E-1,6.604190469E-1,1.034177971E1,1.037848167E1
1.716754079E0,5.982056856E-1,7.178468108E-1,1.039442158E1,1.043633815E1
1.718829392E0,6.029912829E-1,7.561319470E-1,1.040399265E1,1.044884669E1
1.720904704E0,6.029912829E-1,7.896314859E-1,1.040399265E1,1.045132429E1
1.722980069E0,6.029912829E-1,8.087740541E-1,1.038485050E1,1.043373538E1
1.725055381E0,6.125625968E-1,8.135597110E-1,1.034656525E1,1.039656312E1
1.727130746E0,6.125625968E-1,8.183453679E-1,1.029870892E1,1.034931531E1
1.729206006E0,6.125625968E-1,8.183453679E-1,1.026042366E1,1.031121796E1
1.731281319E0,6.077769399E-1,8.327022791E-1,1.018863869E1,1.024066132E1
1.733356736E0,5.742774606E-1,8.422735929E-1,1.014556789E1,1.019665471E1
1.735432048E0,5.168496966E-1,8.614161611E-1,1.012642574E1,1.017613236E1
1.737507413E0,4.450650215E-1,8.949156404E-1,1.009292603E1,1.014229326E1
1.739582725E0,3.637090325E-1,9.379864931E-1,1.006421185E1,1.011436913E1
1.741658038E0,2.967100143E-1,9.667003751E-1,1.004506969E1,1.009583932E1
1.743733402E0,2.392822653E-1,9.906286001E-1,1.001156998E1,1.006330634E1
1.745808715E0,1.770688742E-1,1.004985452E0,9.968499184E0,1.002059505E1
1.747884027E0,1.196411327E-1,9.906286001E-1,9.930213928E0,9.980220823E0
1.749959392E0,6.221338734E-2,9.714859724E-1,9.848857880E0,9.896850864E0
1.752034704E0,4.785645287E-3,9.523434043E-1,9.767501831E0,9.813820504E0
1.754110069E0,-5.742774159E-2,9.427721500E-1,9.681360245E0,9.727325093E0
1.756185381E0,-1.244267747E-1,9.427721500E-1,9.619147301E0,9.666038286E0
1.758260694E0,-1.722832322E-1,9.379864931E-1,9.552147865E0,9.599636921E0
1.760336058E0,-2.249253243E-1,9.332008362E-1,9.456435204E0,9.505031402E0
1.762411371E0,-2.488535494E-1,9.140582681E-1,9.360722542E0,9.408536396E0
1.764486683E0,-2.632105052E-1,8.805587292E-1,9.269794464E0,9.315243038E0
1.766562048E0,-2.632105052E-1,8.374879360E-1,9.174081802E0,9.215988429E0
1.768637361E0,-2.679961324E-1,7.896314859E-1,9.064012527E0,9.102288883E0
1.770712725E0,-2.823530734E-1,7.417750359E-1,8.987442017E0,9.022420266E0
1.772788038E0,-2.775674164E-1,7.226324677E-1,8.977870941E0,9.011182386E0
1.774863350E0,-2.823530734E-1,6.795616150E-1,8.910871506E0,8.941205637E0
1.776938715E0,-2.775674164E-1,6.125625968E-1,8.839086533E0,8.864633514E0
1.779014027E0,-2.632105052E-1,5.407779217E-1,8.772088051E0,8.792681576E0
1.781089340E0,-2.392822653E-1,4.546363056E-1,8.681160927E0,8.696350109E0
1.783164704E0,-2.057827413E-1,3.732803464E-1,8.604590416E0,8.615141379E0
1.785240017E0,-1.674975902E-1,2.967100143E-1,8.561519623E0,8.568296828E0
1.787315381E0,-1.148554832E-1,2.249253243E-1,8.532805443E0,8.536542152E0
1.789390694E0,-7.657032460E-2,1.722832322E-1,8.528019905E0,8.530103635E0
1.791466006E0,-4.785645381E-2,1.244267747E-1,8.561519623E0,8.562557475E0
1.793541371E0,-3.349951655E-2,1.052841991E-1,8.623732567E0,8.624440293E0
1.795616683E0,-4.307080805E-2,9.571290761E-2,8.705088615E0,8.705721329E0
1.797691996E0,-8.135596663E-2,9.092725813E-2,8.810373306E0,8.811218097E0
1.799767361E0,-1.339980662E-1,1.052841991E-1,8.944371223E0,8.945994457E0
1.801842673E0,-1.914258152E-1,1.387837082E-1,9.087940216E0,9.091015462E0
1.803918038E0,-2.488535494E-1,1.531406492E-1,9.241081238E0,9.245699681E0
1.805993350E0,-3.110669553E-1,1.579262912E-1,9.399007797E0,9.405479836E0
1.808068663E0,-3.589234054E-1,1.579262912E-1,9.595218658E0,9.603227990E0
1.810144027E0,-4.019941986E-1,1.435693651E-1,9.815358162E0,9.824635736E0
1.812219340E0,-4.642075896E-1,1.148554832E-1,1.004985523E1,1.006122610E1
1.814294600E0,-5.312066078E-1,1.052841991E-1,1.027956581E1,1.029382040E1
1.816370017E0,-6.125625968E-1,9.092725813E-2,1.051406288E1,1.053228460E1
1.818445329E0,-6.939185858E-1,5.264209956E-2,1.070070267E1,1.072330787E1
1.820520694E0,-7.465606928E-1,1.435693540E-2,1.086341476E1,1.088904676E1
1.822596006E0,-7.800601721E-1,-5.742774159E-2,1.099262714E1,1.102041938E1
1.824671371E0,-7.848458290E-1,-1.435693651E-1,1.106441212E1,1.109314250E1
1.826746683E0,-7.800601721E-1,-2.392822653E-1,1.111226845E1,1.114218380E1
1.828821996E0,-7.657032609E-1,-3.445664644E-1,1.112662506E1,1.115826209E1
1.830897361E0,-7.561319470E-1,-4.546363056E-1,1.108833981E1,1.112338570E1
1.832972673E0,-7.417750359E-1,-5.599204898E-1,1.105962658E1,1.109860718E1
1.835047986E0,-7.274180651E-1,-6.508477330E-1,1.102612686E1,1.106924629E1
1.837123350E0,-7.417750359E-1,-7.130611539E-1,1.100698376E1,1.105497073E1
1.839198663E0,-7.465606928E-1,-7.465606928E-1,1.100219822E1,1.105274045E1
1.841273975E0,-7.417750359E-1,-7.465606928E-1,1.101177025E1,1.106194680E1
1.843349340E0,-7.274180651E-1,-7.322037220E-1,1.102134132E1,1.106956295E1
1.845424652E0,-6.987041831E-1,-7.130611539E-1,1.101655579E1,1.106169721E1
1.847500017E0,-6.699903607E-1,-7.034898400E-1,1.099262714E1,1.103547174E1
1.849575329E0,-6.269195080E-1,-6.604190469E-1,1.100698376E1,1.104458568E1
1.851650642E0,-6.029912829E-1,-6.173482537E-1,1.107876873E1,1.111232802E1
1.853726006E0,-5.838487148E-1,-5.982056856E-1,1.109791183E1,1.112934753E1
1.855801319E0,-5.838487148E-1,-6.029912829E-1,1.109312534E1,1.112483293E1
1.857876631E0,-5.982056856E-1,-6.317051649E-1,1.106919765E1,1.110333455E1
1.859951996E0,-5.886343718E-1,-6.795616150E-1,1.098784161E1,1.102456156E1
1.862027308E0,-5.742774606E-1,-7.609176040E-1,1.087777138E1,1.091946429E1
1.864102673E0,-5.647061467E-1,-8.231309652E-1,1.078205872E1,1.082816826E1
1.866177986E0,-5.599204898E-1,-8.757730722E-1,1.066720295E1,1.071772869E1
1.868253298E0,-5.551348329E-1,-9.188438654E-1,1.057149029E1,1.062585788E1
1.870328663E0,-5.599204898E-1,-9.475577474E-1,1.049970531E1,1.055723393E1
1.872403975E0,-5.694918036E-1,-9.571290612E-1,1.043270683E1,1.049198689E1
1.874479340E0,-5.838487148E-1,-9.427721500E-1,1.037049294E1,1.042961276E1
1.876554652E0,-6.221339107E-1,-9.332008362E-1,1.031306553E1,1.037387271E1
1.878629913E0,-6.556333899E-1,-8.997012973E-1,1.029870892E1,1.035870276E1
1.880705329E0,-7.034898400E-1,-8.566305041E-1,1.027478027E1,1.033440000E1
1.882780642E0,-7.561319470E-1,-8.087740541E-1,1.024128056E1,1.030095522E1
1.884855954E0,-7.992027402E-1,-7.369893789E-1,1.021256733E1,1.027026824E1
1.886931319E0,-8.470591903E-1,-6.843472719E-1,1.020299530E1,1.026094311E1
1.889006631E0,-8.805587292E-1,-6.317051649E-1,1.018863869E1,1.024611113E1
1.891081996E0,-9.140582681E-1,-5.934200287E-1,1.016471100E1,1.022296432E1
1.893157308E0,-9.475577474E-1,-5.599204898E-1,1.012642574E1,1.018606278E1
1.895232621E0,-9.667003751E-1,-5.455635786E-1,1.008814049E1,1.014902595E1
1.897307986E0,-9.619147182E-1,-5.216353536E-1,1.003071213E1,1.009022146E1
1.899383298E0,-9.523434043E-1,-5.024927258E-1,9.968499184E0,1.002648657E1
1.901458611E0,-9.523434043E-1,-4.689932466E-1,9.930213928E0,9.986794345E0
1.903533975E0,-9.762716293E-1,-4.307080805E-1,9.896714211E0,9.954072931E0
1.905609288E0,-9.906286001E-1,-3.780659735E-1,9.844072342E0,9.901012028E0
1.907684652E0,-1.004985452E0,-3.397808075E-1,9.791430473E0,9.848733800E0
1.909759965E0,-1.009771109E0,-2.967100143E-1,9.738788605E0,9.795492740E0
1.911835277E0,-1.004985452E0,-2.584248483E-1,9.690931320E0,9.746329002E0
1.913910642E0,-9.954141974E-1,-2.297109663E-1,9.647860527E0,9.701795159E0
1.915985954E0,-9.906286001E-1,-2.153540403E-1,9.604789734E0,9.658142069E0
1.918061267E0,-9.954141974E-1,-2.057827413E-1,9.542576790E0,9.596560204E0
1.920136631E0,-9.906286001E-1,-1.962114573E-1,9.485149384E0,9.538757927E0
1.922211944E0,-9.810572863E-1,-1.962114573E-1,9.442078590E0,9.494936569E0
1.924287308E0,-9.714859724E-1,-2.105683982E-1,9.399007797E0,9.451426962E0
1.926362621E0,-9.284151793E-1,-2.105683982E-1,9.346364975E0,9.394723628E0
1.928437933E0,-8.757730722E-1,-2.249253243E-1,9.308079720E0,9.351893816E0
1.930513246E0,-8.374879360E-1,-2.392822653E-1,9.293723106E0,9.334448630E0
1.932588611E0,-7.992027402E-1,-2.392822653E-1,9.288937569E0,9.326325224E0
1.934663975E0,-7.848458290E-1,-2.344966233E-1,9.298508644E0,9.334518447E0
1.936739288E0,-7.896314859E-1,-2.344966233E-1,9.303294182E0,9.339688923E0
1.938814600E0,-7.848458290E-1,-2.392822653E-1,9.308079720E0,9.344173963E0
1.940889913E0,-7.944171429E-1,-2.249253243E-1,9.332008362E0,9.368461457E0
1.942965277E0,-8.087740541E-1,-2.201396823E-1,9.370293617E0,9.407708511E0
1.945040590E0,-8.183453679E-1,-2.249253243E-1,9.389435768E0,9.427713646E0
1.947115954E0,-8.039883971E-1,-2.249253243E-1,9.427721024E0,9.464613697E0
1.949191267E0,-7.896314859E-1,-2.440679073E-1,9.466006279E0,9.502018833E0
1.951266579E0,-7.752745152E-1,-2.679961324E-1,9.494720459E0,9.530088619E0
1.953341944E0,-7.369893789E-1,-2.967100143E-1,9.523433685E0,9.556515020E0
1.955417256E0,-7.226324677E-1,-3.302095234E-1,9.571290970E0,9.604209850E0
1.957492621E0,-7.226324677E-1,-3.684946895E-1,9.623932838E0,9.658057222E0
1.959567933E0,-7.082754970E-1,-3.876372576E-1,9.705288887E0,9.738816622E0
1.961643246E0,-6.987041831E-1,-3.780659735E-1,9.820143700E0,9.852225317E0
1.963718611E0,-6.987041831E-1,-3.780659735E-1,9.934999466E0,9.966711384E0
1.965793923E0,-6.843472719E-1,-3.828516304E-1,1.005942631E1,1.008994372E1
1.967869288E0,-6.699903607E-1,-3.780659735E-1,1.016949654E1,1.019855288E1
1.969944600E0,-6.508477330E-1,-3.637090325E-1,1.028435135E1,1.031134180E1
1.972019913E0,-6.412764788E-1,-3.445664644E-1,1.039920712E1,1.042465684E1
1.974095225E0,-6.269195080E-1,-3.014956415E-1,1.048056316E1,1.050362470E1
1.976170590E0,-6.269195080E-1,-2.632105052E-1,1.057627583E1,1.059810918E1
1.978245902E0,-6.125625968E-1,-2.201396823E-1,1.067677498E1,1.069659845E1
1.980321267E0,-5.742774606E-1,-1.770688742E-1,1.075334454E1,1.077012380E1
1.982396579E0,-5.216353536E-1,-1.722832322E-1,1.082034397E1,1.083428025E1
1.984471892E0,-4.546363056E-1,-1.722832322E-1,1.085862923E1,1.086950801E1
1.986547256E0,-3.876372576E-1,-1.962114573E-1,1.086341476E1,1.087209924E1
1.988622569E0,-3.158525825E-1,-2.249253243E-1,1.083948612E1,1.084641939E1
1.990697933E0,-2.440679073E-1,-2.536391914E-1,1.078684425E1,1.079258592E1
1.992773246E0,-1.627119333E-1,-2.823530734E-1,1.074377346E1,1.074871465E1
1.994848558E0,-9.092725813E-2,-3.014956415E-1,1.068156052E1,1.068620150E1
1.996923923E0,-1.914258115E-2,-3.158525825E-1,1.060977554E1,1.061449322E1
1.998999236E0,6.221338734E-2,-3.206382394E-1,1.052841949E1,1.053348453E1
2.001074548E0,1.244267747E-1,-3.062812984E-1,1.045663452E1,1.046185910E1
2.003149913E0,1.770688742E-1,-2.823530734E-1,1.037527943E1,1.038063099E1
2.005225225E0,2.201396823E-1,-2.632105052E-1,1.027478027E1,1.028050830E1
2.007300590E0,2.679961324E-1,-2.344966233E-1,1.014556789E1,1.015181553E1
2.009375902E0,3.062812984E-1,-2.249253243E-1,1.000678444E1,1.001399693E1
2.011451215E0,3.445664644E-1,-2.057827413E-1,9.848857880E0,9.857031709E0
2.013526579E0,3.828516304E-1,-1.866401732E-1,9.671789169E0,9.681162929E0
2.015601892E0,4.067798555E-1,-1.627119333E-1,9.485149384E0,9.495262179E0
2.017677204E0,4.067798555E-1,-1.292124242E-1,9.322437286E0,9.332202455E0
2.019752569E0,3.780659735E-1,-9.092725813E-2,9.150154114E0,9.158412633E0
2.021827881E0,3.254238665E-1,-6.221338734E-2,9.011369705E0,9.017458354E0
2.023903194E0,2.679961324E-1,-5.264209956E-2,8.891729355E0,8.895922888E0
2.025978558E0,2.009970993E-1,-3.828516230E-2,8.824729919E0,8.827101661E0
2.028053871E0,1.531406492E-1,-4.307080805E-2,8.791230202E0,8.792669425E0
2.030129236E0,9.571290761E-2,-5.742774159E-2,8.800801277E0,8.801509077E0
2.032204548E0,2.871387079E-2,-6.699903309E-2,8.829515457E0,8.829816338E0
2.034279861E0,-5.742774159E-2,-7.657032460E-2,8.896514893E0,8.897029740E0
2.036355225E0,-1.435693651E-1,-8.614161611E-2,8.992227554E0,8.993786129E0
2.038430538E0,-2.201396823E-1,-1.244267747E-1,9.097511292E0,9.101024953E0
2.040505902E0,-3.062812984E-1,-1.674975902E-1,9.188439369E0,9.195068337E0
2.042581215E0,-3.876372576E-1,-2.105683982E-1,9.284152031E0,9.294626438E0
2.044656527E0,-4.642075896E-1,-2.679961324E-1,9.413364410E0,9.428612843E0
2.046731892E0,-5.599204898E-1,-3.062812984E-1,9.576076508E0,9.597320484E0
2.048807204E0,-6.460621357E-1,-3.493520916E-1,9.753145218E0,9.780760952E0
2.050882517E0,-7.465606928E-1,-3.780659735E-1,9.944570541E0,9.979717932E0
2.052957881E0,-8.518448472E-1,-3.972085714E-1,1.015035343E1,1.019377698E1
2.055033194E0,-9.619147182E-1,-3.972085714E-1,1.036570740E1,1.041781860E1
2.057108558E0,-1.081555843E0,-3.924229145E-1,1.058106136E1,1.064343076E1
2.059183871E0,-1.191625714E0,-3.828516304E-1,1.077248764E1,1.084495446E1
2.061259183E0,-1.287338614E0,-3.732803464E-1,1.093519974E1,1.101704008E1
2.063334548E0,-1.373480201E0,-3.493520916E-1,1.108355427E1,1.117379389E1
2.065409861E0,-1.416550994E0,-3.302095234E-1,1.119362450E1,1.128773159E1
2.067485225E0,-1.440479279E0,-2.967100143E-1,1.127498055E1,1.137049707E1
2.069560538E0,-1.450050473E0,-2.679961324E-1,1.131326580E1,1.140896364E1
2.071635850E0,-1.454836130E0,-2.488535494E-1,1.133719349E1,1.143286633E1
2.073711215E0,-1.459621787E0,-2.344966233E-1,1.130369377E1,1.139995514E1
2.075786527E0,-1.464407444E0,-2.440679073E-1,1.122233772E1,1.132011141E1
2.077861840E0,-1.493121386E0,-2.536391914E-1,1.107398319E1,1.117706795E1
2.079937204E0,-1.507478237E0,-2.440679073E-1,1.093519974E1,1.104131573E1
2.082012465E0,-1.521835208E0,-1.962114573E-1,1.082034397E1,1.092860124E1
2.084087881E0,-1.521835208E0,-1.435693651E-1,1.069591713E1,1.080459337E1
2.086163194E0,-1.507478237E0,-7.178468257E-2,1.057149029E1,1.067867270E1
2.088238506E0,-1.493121386E0,4.785645287E-3,1.045663452E1,1.056270041E1
2.090313871E0,-1.454836130E0,7.657032460E-2,1.033699417E1,1.043915033E1
2.092389183E0,-1.402194023E0,1.244267747E-1,1.021256733E1,1.030913001E1
2.094464496E0,-1.354337573E0,1.531406492E-1,1.007378292E1,1.016556859E1
2.096539861E0,-1.311266780E0,1.435693651E-1,9.872786522E0,9.960519386E0
2.098615173E0,-1.263410330E0,1.148554832E-1,9.643074989E0,9.726165364E0
2.100690538E0,-1.205982566E0,6.221338734E-2,9.394221306E0,9.471518273E0
2.102765850E0,-1.129412293E0,3.828516230E-2,9.169296265E0,9.238670460E0
2.104841163E0,-1.062413216E0,6.699903309E-2,9.049654961E0,9.112050572E0
2.106916527E0,-1.019342422E0,1.148554832E-1,9.001798630E0,9.060056806E0
2.108991840E0,-1.004985452E0,1.483550072E-1,8.944371223E0,9.001876557E0
2.111067152E0,-1.014556766E0,1.770688742E-1,8.891729355E0,8.951174769E0
2.113142517E0,-1.009771109E0,1.866401732E-1,8.810373306E0,8.870014095E0
2.115217829E0,-8.997012973E-1,2.536391914E-1,8.748159409E0,8.797959326E0
2.117293142E0,9.805787086E0,2.033899307E0,-9.236295700E0,1.362348579E1
2.119368506E0,1.852044702E0,1.435693622E0,1.244267747E-1,2.346650331E0
2.121443819E0,-3.206382275E0,1.301695466E0,8.824729919E0,9.478984995E0
2.123519183E0,-3.574877024E0,1.378265858E0,1.077248764E1,1.143354068E1
2.125594496E0,-2.584248543E0,1.378265858E0,1.106919765E1,1.145011328E1
2.127669808E0,2.947957516E0,1.741974831E0,2.976671457E0,4.537124948E0
2.129745173E0,1.071984529E0,1.392622828E0,4.972285271E0,5.273724489E0
2.131820486E0,-1.617548108E0,1.095912814E0,1.028435135E1,1.046830308E1
2.133895798E0,-4.498506486E-1,1.215553880E0,9.293723106E0,9.383668047E0
2.135971163E0,4.929214716E-1,1.469193101E0,7.302894592E0,7.465505299E0
2.138046475E0,-1.014556766E0,1.392622828E0,1.007378292E1,1.022006977E1
2.140121840E0,-5.694918036E-1,1.387837172E0,9.365508080E0,9.484890854E0
2.142197152E0,-5.599204898E-1,1.320838094E0,9.150154114E0,9.261935248E0
2.144272465E0,-8.757730722E-1,1.105484009E0,1.008814049E1,1.018624817E1
2.146347829E0,-4.498506486E-1,9.188438654E-1,9.561718941E0,9.616293920E0
2.148423142E0,-3.397808075E-1,7.561319470E-1,9.757930756E0,9.793079145E0
2.150498454E0,-1.435693651E-1,6.317051649E-1,9.657432556E0,9.679135662E0
2.152573819E0,-1.435693540E-2,5.312066078E-1,9.561718941E0,9.576474074E0
2.154649131E0,-7.178468257E-2,5.072783828E-1,9.891928673E0,9.905187392E0
2.156724444E0,5.264209956E-2,5.359922647E-1,9.863214493E0,9.877907624E0
2.158799808E0,1.387837082E-1,5.551348329E-1,9.872786522E0,9.889355353E0
2.160875121E0,1.627119333E-1,6.029912829E-1,1.009292603E1,1.011223167E1
2.162950486E0,2.967100143E-1,6.556333899E-1,1.016949654E1,1.019492775E1
2.165025798E0,3.158525825E-1,6.652047038E-1,1.026042366E1,1.028681456E1
2.167101111E0,3.397808075E-1,6.795616150E-1,1.033220863E1,1.036010571E1
2.169176475E0,4.307080805E-1,7.130611539E-1,1.034177971E1,1.037527702E1
2.171251788E0,5.312066078E-1,7.130611539E-1,1.026999474E1,1.030841542E1
2.173327152E0,8.039883971E-1,6.269195080E-1,1.007856941E1,1.013000428E1
2.175402465E0,7.800601721E-1,3.972085714E-1,9.992427826E0,1.003069700E1
2.177477777E0,4.307080805E-2,8.135596663E-2,1.008814049E1,1.008856047E1
2.179553142E0,-4.546363056E-1,-1.674975902E-1,1.009292603E1,1.010454875E1
2.181628454E0,-2.823530734E-1,-2.919243574E-1,9.982855797E0,9.991113699E0
2.183703819E0,-2.201396823E-1,-2.584248483E-1,9.891928673E0,9.897752156E0
2.185779131E0,-4.354937077E-1,-1.292124242E-1,9.781859398E0,9.792401335E0
2.187854444E0,-5.072783828E-1,-4.785645381E-2,9.628718376E0,9.642190579E0
2.189929808E0,-5.216353536E-1,-2.871387079E-2,9.494720459E0,9.509082212E0
2.192005121E0,-5.694918036E-1,-3.349951655E-2,9.370293617E0,9.387643240E0
2.194080433E0,-5.790630579E-1,-4.785645287E-3,9.336793900E0,9.354734483E0
2.196155798E0,-5.934200287E-1,1.914258115E-2,9.279366493E0,9.298341588E0
2.198231111E0,-6.029912829E-1,4.307080805E-2,9.231510162E0,9.251282801E0
2.200306475E0,-5.982056856E-1,5.264209956E-2,9.226723671E0,9.246245234E0
2.202381788E0,-5.599204898E-1,3.828516230E-2,9.221938133E0,9.238999926E0
2.204457100E0,-5.168496966E-1,-4.785645287E-3,9.403793335E0,9.417987343E0
2.206532465E0,-4.307080805E-1,-4.785645381E-2,9.571290970E0,9.581096520E0
2.208607777E0,-3.349951804E-1,-7.178468257E-2,9.896714211E0,9.902642424E0
2.210683090E0,-2.584248483E-1,-1.962114573E-1,1.033220863E1,1.033730224E1
2.212758454E0,7.178468257E-2,-5.694918036E-1,1.109791183E1,1.111274588E1
2.214833767E0,7.226324677E-1,-6.891329288E-1,1.339023590E1,1.342741670E1
2.216909079E0,3.503092289E0,2.062613010E0,2.343530464E1,2.378527973E1
2.218984444E0,1.493121386E0,-1.622333765E0,1.663011742E1,1.677564257E1
2.221059756E0,3.220739365E0,-2.603390932E0,7.159325123E0,8.270836875E0
2.223135121E0,3.306880951E0,-7.178468257E-2,1.667318726E1,1.699811130E1
2.225210433E0,1.301695466E0,-2.823530734E-1,1.278724384E1,1.285642794E1
2.227285746E0,3.876372576E-1,9.571290575E-3,9.748359680E0,9.756068404E0
2.229361111E0,8.231309652E-1,8.662018180E-1,1.272024536E1,1.277624719E1
2.231436423E0,-2.440679073E-1,1.043270707E0,9.801001549E0,9.859392186E0
2.233511736E0,-5.024927258E-1,2.163111687E0,1.027956581E1,1.051670216E1
2.235587100E0,-8.757730722E-1,2.512463808E0,1.049013424E1,1.082230887E1
2.237662413E0,-1.081555843E0,1.636690736E0,9.714859962E0,9.910954732E0
2.239737777E0,-9.571290575E-3,2.871387079E-2,9.930213928E0,9.930260055E0
2.241813090E0,-2.962314367E0,-8.614161611E-1,8.087740541E-1,3.189272595E0
2.243888402E0,-8.417949677E0,-3.828516304E-1,-1.139462185E1,1.417200971E1
2.245963767E0,-5.991627693E0,1.009771109E0,-1.378265858E0,6.230478062E0
2.248039079E0,-1.866401672E0,-7.226324677E-1,4.527220249E0,4.949886470E0
2.250114392E0,1.622333765E0,2.632105052E-1,1.365823174E1,1.375676345E1
2.252189756E0,1.813759565E0,1.627119333E-1,1.389272785E1,1.401156972E1
2.254265069E0,1.416550994E0,-1.100698411E-1,1.390708542E1,1.397947628E1
2.256340381E0,2.038684845E0,-3.349951655E-2,1.487378597E1,1.501289004E1
2.258415746E0,1.895115495E0,-3.349951804E-1,1.314616776E1,1.328628658E1
2.260491058E0,4.785645381E-2,-4.546363056E-1,8.532805443E0,8.545042606E0
2.262566423E0,-1.670190215E0,7.657032460E-2,4.737788677E0,5.024145690E0
2.264641736E0,-2.708675146E0,8.614161611E-2,4.881358147E0,5.583188944E0
2.266717048E0,-6.556333899E-1,-2.440679073E-1,9.317651749E0,9.343878124E0
2.268792361E0,8.805587292E-1,-2.536391914E-1,1.079162979E1,1.083046583E1
2.270867725E0,1.899901152E0,1.292124242E-1,1.271545982E1,1.285726405E1
2.272943038E0,-5.742774159E-2,-1.770688742E-1,9.877572060E0,9.879325945E0
2.275018402E0,-6.077769399E-1,-1.148554832E-1,8.695517540E0,8.717488737E0
2.277093715E0,-5.455635786E-1,1.435693540E-2,8.729017258E0,8.746061286E0
2.279169079E0,8.614161611E-2,-1.531406492E-1,9.944570541E0,9.946122646E0
2.281244392E0,6.412764788E-1,-7.657032460E-2,1.062891865E1,1.064852150E1
2.283319704E0,3.589234054E-1,-7.178468257E-2,1.015035343E1,1.015695101E1
2.285395069E0,-1.866401732E-1,-1.100698411E-1,9.370293617E0,9.372798536E0
2.287470381E0,-2.105683982E-1,-1.914258115E-2,9.355937004E0,9.358325850E0
2.289545694E0,1.435693540E-2,-8.135596663E-2,9.863214493E0,9.863560465E0
2.291621058E0,2.632105052E-1,-1.435693651E-1,1.021735287E1,1.022175090E1
2.293696371E0,2.536391914E-1,-4.785645381E-2,1.007856941E1,1.008187406E1
2.295771736E0,-9.571290575E-3,-7.657032460E-2,9.734002113E0,9.734307976E0
2.297847048E0,-9.092725813E-2,-5.264209956E-2,9.547362328E0,9.547940426E0
2.299922361E0,3.349951655E-2,-4.785645381E-2,9.667003632E0,9.667180130E0
2.301997725E0,1.052841991E-1,-9.571290761E-2,9.844072342E0,9.845100609E0
2.304073038E0,1.100698411E-1,-8.135596663E-2,9.844072342E0,9.845023841E0
2.306148350E0,5.264209956E-2,-7.178468257E-2,9.805787086E0,9.806191137E0
2.308223715E0,1.914258115E-2,-8.614161611E-2,9.810572624E0,9.810969475E0
2.310298975E0,6.221338734E-2,-8.135596663E-2,9.863214493E0,9.863746217E0
2.312374392E0,1.004985496E-1,-6.699903309E-2,9.925428391E0,9.926163285E0
2.314449704E0,9.092725813E-2,-7.178468257E-2,9.863214493E0,9.863894816E0
2.316525017E0,5.742774159E-2,-5.264209956E-2,9.791430473E0,9.791740389E0
2.318600381E0,4.785645287E-3,-3.828516230E-2,9.724431038E0,9.724507580E0
2.320675694E0,-6.699903309E-2,2.871387079E-2,9.829715729E0,9.829985995E0
2.322751058E0,1.914258152E-1,-1.722832322E-1,9.858428955E0,9.861792272E0
2.324826371E0,1.292124242E-1,-9.092725813E-2,9.911071777E0,9.912331078E0
2.326901683E0,5.264209956E-2,-6.221338734E-2,9.801001549E0,9.801340370E0
2.328977048E0,3.349951655E-2,-1.004985496E-1,9.743574142E0,9.744150001E0
2.331052361E0,3.828516230E-2,-7.657032460E-2,9.805787086E0,9.806160775E0
2.333127673E0,5.742774159E-2,-8.135596663E-2,9.801001549E0,9.801507440E0
2.335203038E0,2.392822690E-2,-7.178468257E-2,9.820143700E0,9.820435219E0
2.337278350E0,1.914258115E-2,-6.699903309E-2,9.777072906E0,9.777321204E0
2.339353715E0,1.435693540E-2,-6.699903309E-2,9.772287369E0,9.772527586E0
2.341429027E0,1.914258115E-2,-5.742774159E-2,9.796216011E0,9.796403040E0
2.343504340E0,4.307080805E-2,-6.221338734E-2,9.815358162E0,9.815649823E0
2.345579704E0,5.742774159E-2,-8.135596663E-2,9.805787086E0,9.806292731E0
2.347655017E0,5.264209956E-2,-7.657032460E-2,9.772287369E0,9.772729129E0
2.349730329E0,5.264209956E-2,-8.614161611E-2,9.767501831E0,9.768023525E0
2.351805694E0,6.221338734E-2,-7.657032460E-2,9.767501831E0,9.768000079E0
2.353881006E0,7.657032460E-2,-7.178468257E-2,9.777072906E0,9.777636252E0
2.355956319E0,6.221338734E-2,-7.657032460E-2,9.748359680E0,9.748858906E0
2.358031683E0,6.221338734E-2,-5.742774159E-2,9.781859398E0,9.782225807E0
2.360106996E0,5.742774159E-2,-7.178468257E-2,9.767501831E0,9.767934429E0
2.362182361E0,6.699903309E-2,-7.657032460E-2,9.801001549E0,9.801529638E0
2.364257673E0,6.699903309E-2,-6.221338734E-2,9.834501266E0,9.834926260E0
2.366332986E0,6.221338734E-2,-6.699903309E-2,9.834501266E0,9.834926260E0
2.368408350E0,6.221338734E-2,-8.135596663E-2,9.796216011E0,9.796751371E0
2.370483663E0,6.699903309E-2,-6.221338734E-2,9.834501266E0,9.834926260E0
2.372559027E0,8.135596663E-2,-7.178468257E-2,9.815358162E0,9.815957808E0
2.374634340E0,5.742774159E-2,-7.178468257E-2,9.801001549E0,9.801432668E0
2.376709652E0,6.221338734E-2,-7.178468257E-2,9.824930191E0,9.825389397E0
2.378785017E0,6.699903309E-2,-6.699903309E-2,9.848857880E0,9.849313645E0
2.380860329E0,5.742774159E-2,-8.135596663E-2,9.844072342E0,9.844576020E0
2.382935642E0,8.135596663E-2,-7.657032460E-2,9.829715729E0,9.830350610E0
2.385011006E0,7.657032460E-2,-9.092725813E-2,9.848857880E0,9.849575235E0
2.387086319E0,6.221338734E-2,-6.699903309E-2,9.820143700E0,9.820569314E0
2.389161683E0,3.349951655E-2,-5.742774159E-2,9.824930191E0,9.825155135E0
2.391236996E0,4.307080805E-2,-7.657032460E-2,9.805787086E0,9.806180627E0
2.393312308E0,3.349951655E-2,-6.699903309E-2,9.810572624E0,9.810858592E0
2.395387673E0,6.221338734E-2,-9.092725813E-2,9.810572624E0,9.811191237E0
2.397462986E0,3.349951655E-2,-5.264209956E-2,9.815358162E0,9.815556492E0
2.399538350E0,-1.914258115E-2,-3.828516230E-2,9.743574142E0,9.743668163E0
2.401613663E0,1.914258115E-2,-7.657032460E-2,9.724431038E0,9.724751332E0
2.403688975E0,-4.785645381E-2,-6.699903309E-2,9.681360245E0,9.681710350E0
2.405764288E0,-1.244267747E-1,-1.483550072E-1,9.513862610E0,9.515832753E0
2.407839652E0,-8.614161611E-2,-6.699903309E-2,9.355937004E0,9.356573437E0
2.409914965E0,-2.440679073E-1,-9.092725813E-2,9.054440498E0,9.058185781E0
2.411990329E0,-3.684946895E-1,-8.135596663E-2,8.906085968E0,8.914077316E0
2.414065642E0,-4.163511395E-1,-5.742774159E-2,8.618947029E0,8.629188496E0
2.416140954E0,-4.833501875E-1,-4.307080805E-2,8.532805443E0,8.546592960E0
2.418216319E0,-5.024927258E-1,-7.178468257E-2,8.432307243E0,8.447571096E0
2.420291631E0,-6.508477330E-1,-1.148554832E-1,8.336593628E0,8.362750018E0
2.422366944E0,-6.317051649E-1,-8.614161611E-2,8.216953278E0,8.241649893E0
2.424442308E0,-7.752745152E-1,-3.828516230E-2,8.006384850E0,8.043924085E0
2.426517621E0,-8.662018180E-1,-6.699903309E-2,7.834101200E0,7.882127636E0
2.428592986E0,-9.092726111E-1,-4.307080805E-2,7.680960655E0,7.734713205E0
2.430668298E0,-1.000199914E0,-1.435693540E-2,7.585247993E0,7.650921063E0
2.432743611E0,-1.067198873E0,-5.264209956E-2,7.537391186E0,7.612749208E0
2.434818975E0,-1.062413216E0,-1.435693540E-2,7.604390144E0,7.678260052E0
2.436894288E0,-1.091127157E0,-1.914258115E-2,7.752745152E0,7.829175071E0
2.438969600E0,-1.038485050E0,-6.221338734E-2,7.805387497E0,7.874413990E0
2.441044965E0,-1.019342422E0,-5.264209956E-2,8.001599312E0,8.066437982E0
2.443120277E0,-9.332008362E-1,-4.307080805E-2,8.307880402E0,8.360238972E0
2.445195642E0,-8.662018180E-1,-6.221338734E-2,8.580661774E0,8.624496076E0
2.447270954E0,-7.561319470E-1,-2.392822690E-2,8.997013092E0,9.028762521E0
2.449346267E0,-6.891329288E-1,-1.052841991E-1,9.193224907E0,9.219618926E0
2.451421631E0,-6.364908218E-1,-1.148554832E-1,9.413364410E0,9.435557316E0
2.453496944E0,-4.881358147E-1,-7.178468257E-2,9.891928673E0,9.904225486E0
2.455572256E0,-4.498506486E-1,-1.004985496E-1,1.010249710E1,1.011300713E1
2.457647621E0,-3.684946895E-1,-1.052841991E-1,1.038963604E1,1.039670189E1
2.459722933E0,-3.014956415E-1,-7.657032460E-2,1.063370419E1,1.063825302E1
2.461798298E0,-2.775674164E-1,-8.614161611E-2,1.082034397E1,1.082424629E1
2.463873611E0,-2.440679073E-1,-8.614161611E-2,1.094477081E1,1.094783073E1
2.465948923E0,-2.440679073E-1,-9.571290761E-2,1.102612686E1,1.102924311E1
2.468024288E0,-2.440679073E-1,-1.100698411E-1,1.107876873E1,1.108200348E1
2.470099600E0,-2.679961324E-1,-1.148554832E-1,1.109312534E1,1.109695650E1
2.472174913E0,-3.014956415E-1,-1.052841991E-1,1.105005455E1,1.105466824E1
2.474250277E0,-3.397808075E-1,-9.571290761E-2,1.101655579E1,1.102221000E1
2.476325590E0,-4.019941986E-1,-8.135596663E-2,1.095912743E1,1.096679954E1
2.478400954E0,-4.211367965E-1,-8.614161611E-2,1.089212894E1,1.090060776E1
2.480476267E0,-4.498506486E-1,-9.092725813E-2,1.084427261E1,1.085398000E1
2.482551579E0,-4.833501875E-1,-8.614161611E-2,1.082034397E1,1.083147688E1
2.484626944E0,-5.264210105E-1,-7.178468257E-2,1.079162979E1,1.080470017E1
2.486702256E0,-5.407779217E-1,-6.221338734E-2,1.079641533E1,1.081012929E1
2.488777569E0,-5.551348329E-1,-7.178468257E-2,1.080598736E1,1.082047552E1
2.490852933E0,-5.694918036E-1,-7.657032460E-2,1.082034397E1,1.083559078E1
2.492928246E0,-5.838487148E-1,-7.178468257E-2,1.082991505E1,1.084587905E1
2.495003558E0,-5.934200287E-1,-6.221338734E-2,1.084905815E1,1.086545354E1
2.497078923E0,-5.790630579E-1,-6.221338734E-2,1.087298584E1,1.088857225E1
2.499154236E0,-5.503492355E-1,-8.135596663E-2,1.089691448E1,1.091110665E1
2.501229600E0,-5.694918036E-1,-7.657032460E-2,1.092562866E1,1.094072875E1
2.503304913E0,-5.790630579E-1,-6.221338734E-2,1.095912743E1,1.097459149E1
2.505380225E0,-5.886343718E-1,-6.699903309E-2,1.095434189E1,1.097035029E1
2.507455590E0,-5.934200287E-1,-7.657032460E-2,1.093519974E1,1.095155713E1
2.509530850E0,-6.077769399E-1,-8.614161611E-2,1.088255692E1,1.089985588E1
2.511606267E0,-6.269195080E-1,-1.004985496E-1,1.080120182E1,1.081984699E1
2.513681579E0,-6.699903607E-1,-1.004985496E-1,1.071027374E1,1.073167977E1
2.515756892E0,-7.082754970E-1,-1.004985496E-1,1.057627583E1,1.060044171E1
2.517832256E0,-7.657032609E-1,-1.052841991E-1,1.043749237E1,1.046607057E1
2.519907569E0,-8.422735929E-1,-1.004985496E-1,1.029870892E1,1.033358264E1
2.521982829E0,-9.427721500E-1,-8.614161611E-2,1.012642574E1,1.017058199E1
2.524058246E0,-1.014556766E0,-7.657032460E-2,9.954142570E0,1.000600533E1
2.526133558E0,-1.081555843E0,-7.178468257E-2,9.796216011E0,9.856001432E0
2.528208923E0,-1.138983607E0,-6.699903309E-2,9.633503914E0,9.700833479E0
2.530284236E0,-1.177268744E0,-6.699903309E-2,9.494720459E0,9.567662576E0
2.532359548E0,-1.220339537E0,-8.135596663E-2,9.365508080E0,9.445029855E0
2.534434913E0,-1.277767301E0,-9.092725813E-2,9.269794464E0,9.357886858E0
2.536510225E0,-1.316052437E0,-8.614161611E-2,9.169296265E0,9.263660636E0
2.538585538E0,-1.330409408E0,-8.135596663E-2,9.087940216E0,9.185165505E0
2.540660902E0,-1.349551916E0,-8.135596663E-2,9.054440498E0,9.154823969E0
2.542736215E0,-1.383051515E0,-7.178468257E-2,9.025727272E0,9.131360103E0
2.544811579E0,-1.397408366E0,-7.178468257E-2,9.016156197E0,9.124087666E0
2.546886892E0,-1.220339537E0,-4.737788737E-1,8.729017258E0,8.826632273E0
2.548962204E0,-4.498506486E-1,2.967100143E-1,1.369173145E1,1.370233238E1
2.551037569E0,6.364908218E-1,-1.531406492E-1,1.144726372E1,1.146596787E1
2.553112881E0,-7.130611539E-1,-2.057827413E-1,1.111705399E1,1.114179932E1
2.555188194E0,-3.349951804E-1,2.488535494E-1,1.280638695E1,1.281318448E1
2.557263558E0,-1.292124242E-1,-3.349951804E-1,1.148076344E1,1.148637657E1
2.559338871E0,-9.571290761E-2,9.571290761E-2,1.261496067E1,1.261568685E1
2.561414236E0,-3.014956415E-1,-1.148554832E-1,1.198325539E1,1.198759780E1
2.563489496E0,-2.009970993E-1,-9.571290761E-2,1.207896900E1,1.208102036E1
2.565564861E0,-1.674975902E-1,-6.699903309E-2,1.206939697E1,1.207074511E1
2.567640225E0,-3.158525825E-1,-1.244267747E-1,1.168175983E1,1.168669148E1
2.569715538E0,-2.344966233E-1,-8.614161611E-2,1.184447193E1,1.184710616E1
2.571790850E0,-2.775674164E-1,-1.100698411E-1,1.154776192E1,1.155162172E1
2.573866215E0,-4.019941986E-1,-8.135596663E-2,1.135633659E1,1.136374054E1
2.575941527E0,-4.259224236E-1,-6.699903309E-2,1.122712421E1,1.123540017E1
2.578016840E0,-5.072783828E-1,-1.052841991E-1,1.094477081E1,1.095702625E1
2.580092204E0,-5.551348329E-1,-7.178468257E-2,1.071027374E1,1.072489121E1
2.582167517E0,-6.747759581E-1,-4.785645381E-2,1.044706345E1,1.046894204E1
2.584242881E0,-7.034898400E-1,-8.614161611E-2,1.040877819E1,1.043287984E1
2.586318194E0,-8.231309652E-1,1.435693540E-2,1.032263660E1,1.035541294E1
2.588393506E0,-6.604190469E-1,-6.221338734E-2,1.025563812E1,1.027706851E1
2.590468871E0,-5.694918036E-1,-1.627119333E-1,1.006899738E1,1.008640195E1
2.592544183E0,-7.609176040E-1,-5.742774159E-2,9.891928673E0,9.921317776E0
2.594619548E0,-7.178468108E-1,-5.264209956E-2,9.872786522E0,9.898989289E0
2.596694861E0,-7.274180651E-1,-1.148554832E-1,9.710074425E0,9.737960472E0
2.598770173E0,-7.609176040E-1,-9.092725813E-2,9.552147865E0,9.582838421E0
2.600845538E0,-7.752745152E-1,-1.004985496E-1,9.384650230E0,9.417155116E0
2.602920850E0,-8.518448472E-1,-7.657032460E-2,9.193224907E0,9.232924068E0
2.604996163E0,-9.427721500E-1,-7.657032460E-2,8.910871506E0,8.960932615E0
2.607071527E0,-9.571290612E-1,-7.657032460E-2,8.729017258E0,8.781668483E0
2.609146840E0,-9.140582681E-1,-9.092725813E-2,8.604590416E0,8.653481756E0
2.611222152E0,-8.709874153E-1,-1.100698411E-1,8.561519623E0,8.606413463E0
2.613297517E0,-8.709874153E-1,-1.004985496E-1,8.556734085E0,8.601535749E0
2.615372829E0,-8.566305041E-1,-1.004985496E-1,8.566305161E0,8.609616709E0
2.617448194E0,-8.135597110E-1,-9.571290761E-2,8.652446747E0,8.691137732E0
2.619523506E0,-7.465606928E-1,-9.092725813E-2,8.776873589E0,8.809036873E0
2.621598819E0,-6.795616150E-1,-7.657032460E-2,8.958727837E0,8.984791119E0
2.623674183E0,-5.886343718E-1,-5.742774159E-2,9.111868858E0,9.131042792E0
2.625749496E0,-5.024927258E-1,-5.264209956E-2,9.293723106E0,9.307446444E0
2.627824808E0,-4.067798555E-1,-4.307080805E-2,9.475577354E0,9.484402519E0
2.629900173E0,-3.254238665E-1,-5.264209956E-2,9.633503914E0,9.639142573E0
2.631976319E0,-2.536391914E-1,-5.742774159E-2,9.772287369E0,9.775747092E0
2.634050850E0,-1.962114573E-1,-4.785645381E-2,9.868000984E0,9.870067507E0
2.636126163E0,-1.627119333E-1,-4.307080805E-2,9.934999466E0,9.936425145E0
2.638201475E0,-1.292124242E-1,-5.264209956E-2,9.978070259E0,9.979045703E0
2.640276840E0,-8.614161611E-2,-5.742774159E-2,1.002114105E1,1.002167582E1
2.642352152E0,-3.828516230E-2,-6.699903309E-2,1.005942631E1,1.005972228E1
2.644427465E0,4.785645287E-3,-5.742774159E-2,1.011685371E1,1.011701784E1
2.646502829E0,2.871387079E-2,-5.742774159E-2,1.011685371E1,1.011705745E1
2.648578142E0,4.785645287E-3,-4.785645381E-2,1.004985523E1,1.004997031E1
2.650653454E0,5.742774159E-2,-8.135596663E-2,1.003071213E1,1.003120643E1
2.652728819E0,6.221338734E-2,-6.699903309E-2,1.009292603E1,1.009334014E1
2.654804131E0,-7.178468108E-1,-2.009970993E-1,7.637889862E0,7.674181743E0
2.656879496E0,-3.809373617E0,2.105683982E-1,-4.307080805E-2,3.815432020E0
2.658954808E0,-2.933600664E0,-2.584248483E-1,3.991228104E0,4.960110688E0
2.661030121E0,-7.130611539E-1,3.349951655E-2,8.441878319E0,8.472006136E0
2.663105486E0,6.795616150E-1,4.785645381E-2,1.072941685E1,1.075102228E1
2.665180798E0,1.330409408E0,-5.742774159E-2,1.223689461E1,1.230913794E1
2.667256111E0,4.067798555E-1,-1.148554832E-1,1.037049294E1,1.037910330E1
2.669331475E0,-4.498506486E-1,-8.614161611E-2,9.174081802E0,9.185508309E0
2.671406788E0,-6.221339107E-1,-1.100698411E-1,8.580661774E0,8.603889960E0
2.673482152E0,-1.914258115E-2,-4.307080805E-2,9.801001549E0,9.801114880E0
2.675557465E0,3.254238665E-1,-9.092725813E-2,1.022692394E1,1.023250418E1
2.677632777E0,2.967100143E-1,-9.092725813E-2,1.002592659E1,1.003072822E1
2.679708142E0,2.392822690E-2,-1.196411327E-1,9.920642853E0,9.921393106E0
2.681783454E0,-1.100698411E-1,-9.092725813E-2,9.418149948E0,9.419232006E0
2.683858767E0,3.349951655E-2,-5.264209956E-2,9.777072906E0,9.777272014E0
2.685934131E0,8.135596663E-2,-1.100698411E-1,9.963713646E0,9.964653721E0
2.688009444E0,1.292124242E-1,-7.178468257E-2,9.911071777E0,9.912173963E0
2.690084808E0,1.292124242E-1,-9.571290761E-2,9.958928108E0,9.960226196E0
2.692160121E0,4.785645287E-3,-9.571290761E-2,9.695717812E0,9.696191404E0
2.694235433E0,6.699903309E-2,-5.264209956E-2,9.805787086E0,9.806157272E0
2.696310798E0,5.264209956E-2,-8.614161611E-2,9.786644936E0,9.787165609E0
2.698386111E0,7.178468257E-2,-7.178468257E-2,9.805787086E0,9.806312583E0
2.700461423E0,8.614161611E-2,-7.657032460E-2,9.863214493E0,9.863887850E0
2.702536788E0,4.785645381E-2,-8.614161611E-2,9.772287369E0,9.772784201E0
2.704612100E0,8.135596663E-2,-8.135596663E-2,9.853643417E0,9.854315105E0
2.706687413E0,7.178468257E-2,-7.657032460E-2,9.820143700E0,9.820704574E0
2.708762777E0,1.004985496E-1,-7.178468257E-2,9.801001549E0,9.801779653E0
2.710838090E0,8.614161611E-2,-8.135596663E-2,9.810572624E0,9.811288110E0
2.712913454E0,7.178468257E-2,-6.699903309E-2,9.729216576E0,9.729712076E0
2.714988767E0,8.614161611E-2,-8.614161611E-2,9.757930756E0,9.758691172E0
2.717064079E0,7.657032460E-2,-9.092725813E-2,9.748359680E0,9.749084431E0
2.719139444E0,5.742774159E-2,-8.614161611E-2,9.772287369E0,9.772835757E0
2.721214756E0,9.571290575E-3,-7.657032460E-2,9.753145218E0,9.753450480E0
2.723290069E0,1.914258115E-2,-6.699903309E-2,9.762716293E0,9.762964956E0
2.725365433E0,5.264209956E-2,-6.221338734E-2,9.853643417E0,9.853980429E0
2.727440746E0,3.349951655E-2,-7.178468257E-2,9.820143700E0,9.820463204E0
2.729516111E0,2.871387079E-2,-6.699903309E-2,9.791430473E0,9.791701796E0
2.731591423E0,3.828516230E-2,-7.657032460E-2,9.801001549E0,9.801375420E0
2.733666736E0,3.349951655E-2,-7.178468257E-2,9.781859398E0,9.782180153E0
2.735742100E0,4.307080805E-2,-7.178468257E-2,9.834501266E0,9.834857564E0
2.737817413E0,4.785645381E-2,-6.221338734E-2,9.834501266E0,9.834814483E0
2.739892725E0,5.264209956E-2,-6.699903309E-2,9.815358162E0,9.815727987E0
2.741968090E0,6.699903309E-2,-6.699903309E-2,9.848857880E0,9.849313645E0
2.744043402E0,6.699903309E-2,-7.178468257E-2,9.815358162E0,9.815849314E0
2.746118767E0,6.221338734E-2,-7.657032460E-2,9.815358162E0,9.815853981E0
2.748194079E0,5.264209956E-2,-7.178468257E-2,9.815358162E0,9.815761819E0
2.750269392E0,5.264209956E-2,-5.264209956E-2,9.829715729E0,9.829997644E0
2.752344756E0,5.264209956E-2,-6.699903309E-2,9.824930191E0,9.825299655E0
2.754420069E0,3.828516230E-2,-6.221338734E-2,9.820143700E0,9.820415396E0
2.756495381E0,5.264209956E-2,-6.221338734E-2,9.829715729E0,9.830053561E0
2.758570746E0,5.264209956E-2,-6.699903309E-2,9.815358162E0,9.815727987E0
2.760646058E0,5.264209956E-2,-7.657032460E-2,9.824930191E0,9.825369584E0
2.762721371E0,4.307080805E-2,-7.178468257E-2,9.829715729E0,9.830072199E0
2.764796736E0,4.785645381E-2,-7.657032460E-2,9.815358162E0,9.815773485E0
2.766872048E0,6.699903309E-2,-7.657032460E-2,9.815358162E0,9.815885479E0
2.768947413E0,6.699903309E-2,-7.657032460E-2,9.801001549E0,9.801529638E0
2.771022725E0,6.699903309E-2,-7.657032460E-2,9.815358162E0,9.815885479E0
2.773098038E0,5.742774159E-2,-8.614161611E-2,9.839286804E0,9.839831459E0
2.775173402E0,5.742774159E-2,-8.135596663E-2,9.834501266E0,9.835005435E0
2.777248715E0,7.178468257E-2,-8.135596663E-2,9.853643417E0,9.854240733E0
2.779324027E0,9.092725813E-2,-8.614161611E-2,9.824930191E0,9.825728543E0
2.781399392E0,1.004985496E-1,-8.135596663E-2,9.815358162E0,9.816209788E0
2.783474704E0,9.092725813E-2,-8.614161611E-2,9.801001549E0,9.801801850E0
2.785550069E0,8.614161611E-2,-8.614161611E-2,9.791430473E0,9.792188288E0
2.787625381E0,8.135596663E-2,-7.178468257E-2,9.791430473E0,9.792031584E0
2.789700694E0,7.657032460E-2,-7.657032460E-2,9.815358162E0,9.815955474E0
2.791776058E0,6.221338734E-2,-7.657032460E-2,9.820143700E0,9.820639277E0
2.793851371E0,6.221338734E-2,-6.699903309E-2,9.805787086E0,9.806213324E0
2.795926683E0,6.699903309E-2,-7.657032460E-2,9.805787086E0,9.806314918E0
2.798002048E0,6.221338734E-2,-7.178468257E-2,9.781859398E0,9.782320626E0
2.800077361E0,7.657032460E-2,-8.135596663E-2,9.777072906E0,9.777711206E0
2.802152673E0,7.657032460E-2,-8.614161611E-2,9.786644936E0,9.787323561E0
2.804228038E0,8.614161611E-2,-8.614161611E-2,9.796216011E0,9.796973456E0
2.806303350E0,8.135596663E-2,-8.135596663E-2,9.791430473E0,9.792106428E0
2.808378715E0,6.221338734E-2,-7.657032460E-2,9.805787086E0,9.806283389E0
2.810454027E0,5.264209956E-2,-4.785645381E-2,9.820143700E0,9.820401403E0
2.812529340E0,4.785645381E-2,-7.178468257E-2,9.820143700E0,9.820522673E0
2.814604704E0,9.571290761E-2,-8.614161611E-2,9.762716293E0,9.763565474E0
2.816680017E0,8.614161611E-2,-8.614161611E-2,9.767501831E0,9.768261502E0
2.818755329E0,6.221338734E-2,-8.614161611E-2,9.777072906E0,9.777650306E0
2.820830694E0,5.742774159E-2,-8.135596663E-2,9.801001549E0,9.801507440E0
2.822906006E0,3.828516230E-2,-9.092725813E-2,9.781859398E0,9.782356914E0
2.824981371E0,1.435693651E-1,-5.264209956E-2,9.829715729E0,9.830905078E0
2.827056683E0,0.000000000E0,-1.196411327E-1,9.834501266E0,9.835228984E0
2.829131996E0,9.571290761E-2,-3.828516230E-2,9.805787086E0,9.806328931E0
2.831207361E0,1.914258152E-1,-7.178468257E-2,9.820143700E0,9.822271589E0
2.833282673E0,0.000000000E0,-8.614161611E-2,9.863214493E0,9.863590650E0
2.835357986E0,8.135596663E-2,-5.264209956E-2,9.796216011E0,9.796695265E0
2.837433350E0,-5.264209956E-2,-6.699903309E-2,9.848857880E0,9.849226446E0
2.839508663E0,-7.657032460E-2,-7.178468257E-2,9.882357597E0,9.882914941E0
2.841583975E0,3.828516230E-2,-7.657032460E-2,9.853643417E0,9.854015291E0
2.843659340E0,7.178468257E-2,-8.135596663E-2,9.844072342E0,9.844670239E0
2.845734652E0,1.148554832E-1,-8.614161611E-2,9.801001549E0,9.802053026E0
2.847810017E0,1.004985496E-1,-9.571290761E-2,9.824930191E0,9.825910349E0
2.849885329E0,1.004985496E-1,-8.614161611E-2,9.834501266E0,9.835391985E0
2.851960642E0,8.614161611E-2,-7.178468257E-2,9.829715729E0,9.830355270E0
2.854035954E0,1.004985496E-1,-7.657032460E-2,9.815358162E0,9.816171291E0
2.856111319E0,1.004985496E-1,-8.135596663E-2,9.824930191E0,9.825780987E0
2.858186631E0,9.092725813E-2,-7.178468257E-2,9.824930191E0,9.825613165E0
2.860261996E0,8.135596663E-2,-7.657032460E-2,9.815358162E0,9.815993972E0
2.862337308E0,8.135596663E-2,-7.178468257E-2,9.810572624E0,9.811172562E0
2.864412673E0,7.657032460E-2,-6.221338734E-2,9.796216011E0,9.796712798E0
2.866487986E0,5.264209956E-2,-7.178468257E-2,9.801001549E0,9.801405797E0
2.868563298E0,7.178468257E-2,-6.699903309E-2,9.815358162E0,9.815849314E0
2.870638663E0,6.221338734E-2,-6.699903309E-2,9.815358162E0,9.815783984E0
2.872713975E0,6.699903309E-2,-6.221338734E-2,9.815358162E0,9.815783984E0
2.874789288E0,6.699903309E-2,-6.221338734E-2,9.824930191E0,9.825355598E0
2.876864652E0,7.657032460E-2,-6.221338734E-2,9.844072342E0,9.844566714E0
2.878939965E0,6.699903309E-2,-6.699903309E-2,9.834501266E0,9.834957697E0
2.881015277E0,7.657032460E-2,-7.657032460E-2,9.839286804E0,9.839882664E0
2.883090642E0,5.742774159E-2,-8.614161611E-2,9.834501266E0,9.835046186E0
2.885165954E0,1.148554832E-1,-4.785645381E-2,9.829715729E0,9.830503208E0
2.887241319E0,1.483550072E-1,-9.571290761E-2,9.777072906E0,9.778666821E0
2.889316631E0,9.571290761E-2,-9.092725813E-2,9.805787086E0,9.806675742E0
2.891391944E0,7.657032460E-2,-9.571290761E-2,9.844072342E0,9.844835410E0
2.893467308E0,6.221338734E-2,-8.614161611E-2,9.834501266E0,9.835075294E0
2.895542621E0,6.699903309E-2,-8.135596663E-2,9.815358162E0,9.815923976E0
2.897617933E0,7.178468257E-2,-7.657032460E-2,9.801001549E0,9.801563519E0
2.899693298E0,6.221338734E-2,-7.178468257E-2,9.801001549E0,9.801461876E0
2.901768611E0,5.742774159E-2,-8.614161611E-2,9.796216011E0,9.796763060E0
2.903843923E0,5.264209956E-2,-7.657032460E-2,9.796216011E0,9.796656692E0
2.905919236E0,4.785645381E-2,-8.135596663E-2,9.791430473E0,9.791885403E0
2.907994600E0,6.221338734E-2,-8.614161611E-2,9.796216011E0,9.796792282E0
2.910069965E0,5.742774159E-2,-9.092725813E-2,9.796216011E0,9.796806309E0
2.912145277E0,6.699903309E-2,-9.092725813E-2,9.805787086E0,9.806437530E0
2.914220590E0,6.699903309E-2,-9.092725813E-2,9.820143700E0,9.820793192E0
2.916295954E0,6.699903309E-2,-8.135596663E-2,9.810572624E0,9.811138715E0
2.918371267E0,6.699903309E-2,-7.657032460E-2,9.810572624E0,9.811100198E0
2.920446579E0,8.135596663E-2,-8.135596663E-2,9.810572624E0,9.811247260E0
2.922521944E0,7.657032460E-2,-7.657032460E-2,9.820143700E0,9.820740721E0
2.924597256E0,8.135596663E-2,-8.135596663E-2,9.820143700E0,9.820817678E0
2.926672621E0,8.135596663E-2,-7.178468257E-2,9.815358162E0,9.815957808E0
2.928747933E0,8.135596663E-2,-7.178468257E-2,9.815358162E0,9.815957808E0
2.930823246E0,8.135596663E-2,-7.657032460E-2,9.815358162E0,9.815993972E0
2.932898611E0,7.178468257E-2,-7.178468257E-2,9.815358162E0,9.815883146E0
2.934973923E0,7.178468257E-2,-8.614161611E-2,9.810572624E0,9.811213413E0
2.937049236E0,8.135596663E-2,-8.614161611E-2,9.810572624E0,9.811288110E0
2.939124600E0,7.657032460E-2,-8.135596663E-2,9.829715729E0,9.830350610E0
2.941199913E0,7.178468257E-2,-8.135596663E-2,9.805787086E0,9.806387317E0
2.943275225E0,7.657032460E-2,-8.135596663E-2,9.801001549E0,9.801638290E0
2.945350590E0,8.135596663E-2,-9.571290761E-2,9.801001549E0,9.801806523E0
2.947425902E0,7.657032460E-2,-8.135596663E-2,9.810572624E0,9.811208744E0
2.949501267E0,7.178468257E-2,-7.178468257E-2,9.820143700E0,9.820668428E0
2.951576579E0,7.178468257E-2,-7.657032460E-2,9.820143700E0,9.820704574E0
2.953651892E0,7.178468257E-2,-6.699903309E-2,9.805787086E0,9.806278718E0
2.955727256E0,6.699903309E-2,-8.135596663E-2,9.801001549E0,9.801568192E0
2.957802569E0,6.699903309E-2,-8.135596663E-2,9.796216011E0,9.796782931E0
2.959877881E0,6.221338734E-2,-7.657032460E-2,9.810572624E0,9.811068685E0
2.961953246E0,7.178468257E-2,-9.092725813E-2,9.805787086E0,9.806471394E0
2.964028558E0,6.699903309E-2,-8.135596663E-2,9.810572624E0,9.811138715E0
2.966103871E0,7.178468257E-2,-7.178468257E-2,9.820143700E0,9.820668428E0
2.968179236E0,7.178468257E-2,-9.092725813E-2,9.815358162E0,9.816041802E0
2.970254548E0,7.178468257E-2,-7.657032460E-2,9.824930191E0,9.825490793E0
2.972329808E0,7.178468257E-2,-8.135596663E-2,9.824930191E0,9.825529253E0
2.974405225E0,7.178468257E-2,-8.614161611E-2,9.815358162E0,9.815998638E0
2.976480538E0,6.699903309E-2,-7.178468257E-2,9.824930191E0,9.825420865E0
2.978555850E0,7.657032460E-2,-7.178468257E-2,9.839286804E0,9.839846588E0
2.980631215E0,1.100698411E-1,-9.092725813E-2,9.815358162E0,9.816396436E0
2.982706527E0,1.148554832E-1,-1.004985496E-1,9.786644936E0,9.787834839E0
2.984781892E0,1.052841991E-1,-9.092725813E-2,9.801001549E0,9.801988772E0
2.986857204E0,9.571290761E-2,-8.614161611E-2,9.824930191E0,9.825773995E0
2.988932517E0,1.004985496E-1,-7.657032460E-2,9.829715729E0,9.830527671E0
2.991007881E0,1.100698411E-1,-8.135596663E-2,9.810572624E0,9.811527372E0
2.993083194E0,1.196411327E-1,-8.135596663E-2,9.786644936E0,9.787714334E0
2.995158558E0,7.657032460E-2,-8.135596663E-2,9.781859398E0,9.782497385E0
2.997233871E0,3.349951655E-2,-8.135596663E-2,9.877572060E0,9.877963900E0
2.999309183E0,1.387837082E-1,-1.004985496E-1,9.748359680E0,9.749865503E0
3.001384548E0,9.092725813E-2,-8.614161611E-2,9.786644936E0,9.787446411E0
3.003459861E0,8.135596663E-2,-8.614161611E-2,9.772287369E0,9.773005658E0
3.005535173E0,2.871387079E-2,-8.135596663E-2,9.820143700E0,9.820522673E0
3.007610538E0,4.785645287E-3,-5.742774159E-2,9.872786522E0,9.872954702E0
3.009685850E0,-6.221338734E-2,-6.699903309E-2,9.848857880E0,9.849282254E0
3.011761163E0,-1.627119333E-1,-4.785645381E-2,9.925428391E0,9.926877361E0
3.013836527E0,1.818545163E-1,-6.699903309E-2,9.824930191E0,9.826841466E0
3.015911840E0,3.110669553E-1,-1.052841991E-1,9.652647018E0,9.658231819E0
3.017987152E0,-3.349951655E-2,-5.742774159E-2,9.896714211E0,9.896937523E0
3.020062517E0,3.110669553E-1,-1.052841991E-1,9.853643417E0,9.859114362E0
3.022137829E0,-1.914258115E-2,-8.614161611E-2,9.839286804E0,9.839682496E0
3.024213142E0,2.392822690E-2,-9.571290761E-2,9.858428955E0,9.858922608E0
3.026288506E0,8.135596663E-2,-7.657032460E-2,9.911071777E0,9.911701447E0
3.028363819E0,6.699903309E-2,-8.135596663E-2,9.853643417E0,9.854207034E0
3.030439183E0,7.178468257E-2,-7.657032460E-2,9.853643417E0,9.854202385E0
3.032514496E0,4.785645381E-2,-7.657032460E-2,9.824930191E0,9.825345109E0
3.034589808E0,1.292124242E-1,-8.135596663E-2,9.824930191E0,9.826116624E0
3.036665173E0,6.221338734E-2,-8.135596663E-2,9.786644936E0,9.787180820E0
3.038740486E0,7.178468257E-2,-6.221338734E-2,9.801001549E0,9.801461876E0
3.040815850E0,5.742774159E-2,-8.135596663E-2,9.786644936E0,9.787151569E0
3.042891163E0,8.614161611E-2,-8.614161611E-2,9.791430473E0,9.792188288E0
3.044966475E0,7.178468257E-2,-9.571290761E-2,9.786644936E0,9.787376211E0
3.047041840E0,8.135596663E-2,-9.571290761E-2,9.753145218E0,9.753954142E0
3.049117152E0,6.221338734E-2,-9.092725813E-2,9.781859398E0,9.782479826E0
3.051192465E0,6.699903309E-2,-8.614161611E-2,9.786644936E0,9.787253361E0
3.053267829E0,8.135596663E-2,-8.135596663E-2,9.796216011E0,9.796891636E0
3.055343142E0,8.135596663E-2,-8.135596663E-2,9.762716293E0,9.763394236E0
3.057418454E0,7.178468257E-2,-8.135596663E-2,9.786644936E0,9.787246340E0
3.059493819E0,8.135596663E-2,-7.178468257E-2,9.781859398E0,9.782461097E0
3.061569131E0,9.092725813E-2,-8.135596663E-2,9.801001549E0,9.801760960E0
3.063644444E0,5.264209956E-2,-7.657032460E-2,9.848857880E0,9.849296205E0
3.065719808E0,5.264209956E-2,-8.135596663E-2,9.824930191E0,9.825408045E0
3.067795121E0,6.221338734E-2,-9.092725813E-2,9.824930191E0,9.825547900E0
3.069870486E0,9.571290761E-2,-9.092725813E-2,9.824930191E0,9.825817115E0
3.071945798E0,1.052841991E-1,-9.092725813E-2,9.810572624E0,9.811558884E0
3.074021111E0,1.196411327E-1,-9.092725813E-2,9.810572624E0,9.811723446E0
3.076096475E0,1.292124242E-1,-7.657032460E-2,9.753145218E0,9.754301641E0
3.078171788E0,-1.435693540E-2,-6.699903309E-2,9.939785004E0,9.940021173E0
3.080247100E0,1.339980662E-1,-8.135596663E-2,9.762716293E0,9.763974790E0
3.082322465E0,8.135596663E-2,-7.178468257E-2,9.786644936E0,9.787246340E0
3.084397777E0,1.196411327E-1,-9.092725813E-2,9.757930756E0,9.759087785E0
3.086473142E0,7.657032460E-2,-8.614161611E-2,9.777072906E0,9.777752196E0
3.088548402E0,8.614161611E-2,-8.135596663E-2,9.901499748E0,9.902208665E0
3.090623767E0,1.148554832E-1,-9.571290761E-2,9.829715729E0,9.830852661E0
3.092699131E0,9.571290761E-2,-8.614161611E-2,9.834501266E0,9.835344249E0
3.094774444E0,1.004985496E-1,-9.092725813E-2,9.824930191E0,9.825864897E0
3.096849756E0,8.614161611E-2,-7.657032460E-2,9.829715729E0,9.830391381E0
3.098925121E0,7.657032460E-2,-7.657032460E-2,9.844072342E0,9.844667912E0
3.101000433E0,7.178468257E-2,-7.657032460E-2,9.844072342E0,9.844631853E0
3.103075746E0,6.699903309E-2,-7.657032460E-2,9.848857880E0,9.849383403E0
3.105151111E0,5.742774159E-2,-7.178468257E-2,9.863214493E0,9.863642893E0
3.107226423E0,5.742774159E-2,-6.221338734E-2,9.868000984E0,9.868364194E0
3.109301788E0,5.264209956E-2,-5.742774159E-2,9.848857880E0,9.849165989E0
3.111377100E0,5.742774159E-2,-6.221338734E-2,9.863214493E0,9.863577879E0
3.113452413E0,6.221338734E-2,-6.221338734E-2,9.858428955E0,9.858821556E0
3.115527777E0,7.178468257E-2,-7.178468257E-2,9.834501266E0,9.835025228E0
3.117603090E0,8.135596663E-2,-8.135596663E-2,9.848857880E0,9.849529893E0
3.119678402E0,8.135596663E-2,-7.178468257E-2,9.829715729E0,9.830314499E0
3.121753767E0,7.178468257E-2,-7.657032460E-2,9.834501266E0,9.835061322E0
3.123829079E0,9.092725813E-2,-7.178468257E-2,9.815358162E0,9.816041802E0
3.125904392E0,6.699903309E-2,-8.614161611E-2,9.820143700E0,9.820750049E0
3.127979756E0,9.092725813E-2,-9.092725813E-2,9.815358162E0,9.816200455E0
3.130055069E0,8.135596663E-2,-7.657032460E-2,9.796216011E0,9.796853063E0
3.132130381E0,7.178468257E-2,-7.657032460E-2,9.801001549E0,9.801563519E0
3.134205746E0,7.178468257E-2,-8.135596663E-2,9.801001549E0,9.801602073E0
3.136281058E0,7.657032460E-2,-7.657032460E-2,9.805787086E0,9.806384982E0
3.138356423E0,7.178468257E-2,-6.699903309E-2,9.810572624E0,9.811064016E0
3.140431736E0,8.135596663E-2,-7.657032460E-2,9.824930191E0,9.825565382E0
3.142507048E0,7.657032460E-2,-8.135596663E-2,9.829715729E0,9.830350610E0
3.144582413E0,7.657032460E-2,-8.614161611E-2,9.829715729E0,9.830391381E0
3.146657725E0,9.092725813E-2,-9.571290761E-2,9.839286804E0,9.840172435E0
3.148733038E0,1.004985496E-1,-9.092725813E-2,9.834501266E0,9.835435063E0
3.150808402E0,1.004985496E-1,-8.135596663E-2,9.839286804E0,9.840136359E0
3.152883715E0,9.571290761E-2,-8.135596663E-2,9.829715729E0,9.830518352E0
3.154959027E0,9.571290761E-2,-9.092725813E-2,9.805787086E0,9.806675742E0
3.157034392E0,8.614161611E-2,-9.092725813E-2,9.815358162E0,9.816157293E0
3.159109704E0,9.571290761E-2,-7.657032460E-2,9.820143700E0,9.820908627E0
3.161185069E0,7.657032460E-2,-8.135596663E-2,9.829715729E0,9.830350610E0
3.163260381E0,7.657032460E-2,-7.178468257E-2,9.810572624E0,9.811134046E0
3.165335694E0,7.178468257E-2,-8.135596663E-2,9.810572624E0,9.811172562E0
3.167411058E0,7.178468257E-2,-8.135596663E-2,9.805787086E0,9.806387317E0
3.169486371E0,8.135596663E-2,-7.178468257E-2,9.805787086E0,9.806387317E0
3.171561683E0,6.221338734E-2,-7.178468257E-2,9.805787086E0,9.806247189E0
3.173637048E0,7.657032460E-2,-7.178468257E-2,9.801001549E0,9.801563519E0
3.175712361E0,6.699903309E-2,-7.178468257E-2,9.796216011E0,9.796708123E0
3.177787673E0,8.135596663E-2,-7.657032460E-2,9.786644936E0,9.787282611E0
3.179863038E0,7.178468257E-2,-7.178468257E-2,9.786644936E0,9.787171459E0
3.181938350E0,6.221338734E-2,-7.657032460E-2,9.781859398E0,9.782356914E0
3.184013715E0,5.742774159E-2,-7.657032460E-2,9.777072906E0,9.777541387E0
3.186089027E0,7.657032460E-2,-7.657032460E-2,9.772287369E0,9.772887314E0
3.188164340E0,7.657032460E-2,-8.135596663E-2,9.781859398E0,9.782497385E0
3.190239704E0,7.178468257E-2,-8.135596663E-2,9.791430473E0,9.792031584E0
3.192315017E0,8.135596663E-2,-8.135596663E-2,9.796216011E0,9.796891636E0
3.194390329E0,9.092725813E-2,-8.614161611E-2,9.796216011E0,9.797016703E0
3.196465694E0,9.092725813E-2,-8.614161611E-2,9.801001549E0,9.801801850E0
3.198541006E0,8.614161611E-2,-8.135596663E-2,9.810572624E0,9.811288110E0
3.200616319E0,9.092725813E-2,-8.614161611E-2,9.820143700E0,9.820942441E0
3.202691683E0,9.571290761E-2,-9.571290761E-2,9.829715729E0,9.830647651E0
3.204766996E0,9.571290761E-2,-9.571290761E-2,9.839286804E0,9.840217820E0
3.206842361E0,9.092725813E-2,-8.614161611E-2,9.829715729E0,9.830513692E0
3.208917673E0,7.178468257E-2,-8.614161611E-2,9.824930191E0,9.825570043E0
3.210992986E0,8.614161611E-2,-8.135596663E-2,9.824930191E0,9.825644632E0
3.213068350E0,8.614161611E-2,-8.135596663E-2,9.824930191E0,9.825644632E0
3.215143663E0,7.657032460E-2,-8.135596663E-2,9.820143700E0,9.820779200E0
3.217218975E0,8.614161611E-2,-8.614161611E-2,9.829715729E0,9.830470592E0
3.219294340E0,8.135596663E-2,-8.614161611E-2,9.824930191E0,9.825644632E0
3.221369652E0,8.614161611E-2,-8.614161611E-2,9.820143700E0,9.820899299E0
3.223444965E0,8.135596663E-2,-7.657032460E-2,9.820143700E0,9.820779200E0
3.225520329E0,8.135596663E-2,-8.614161611E-2,9.810572624E0,9.811288110E0
3.227595642E0,8.135596663E-2,-8.135596663E-2,9.810572624E0,9.811247260E0
3.229671006E0,9.092725813E-2,-8.135596663E-2,9.805787086E0,9.806546127E0
3.231746319E0,8.135596663E-2,-8.614161611E-2,9.801001549E0,9.801717734E0
3.233821631E0,8.614161611E-2,-8.135596663E-2,9.801001549E0,9.801717734E0
3.235896996E0,7.657032460E-2,-8.614161611E-2,9.796216011E0,9.796893973E0
3.237972256E0,7.657032460E-2,-7.657032460E-2,9.796216011E0,9.796814491E0
3.240047621E0,7.178468257E-2,-7.657032460E-2,9.801001549E0,9.801563519E0
3.242122986E0,8.135596663E-2,-6.221338734E-2,9.796216011E0,9.796751371E0
3.244198298E0,3.349951655E-2,-6.221338734E-2,9.839286804E0,9.839540515E0
3.246273663E0,9.571290761E-2,-8.614161611E-2,9.786644936E0,9.787492040E0
3.248348975E0,7.657032460E-2,-8.614161611E-2,9.805787086E0,9.806464387E0
3.250424288E0,9.092725813E-2,-7.178468257E-2,9.810572624E0,9.811256597E0
3.252499652E0,6.699903309E-2,-7.657032460E-2,9.839286804E0,9.839812839E0
3.254574965E0,8.135596663E-2,-6.699903309E-2,9.844072342E0,9.844636506E0
3.256650277E0,6.221338734E-2,-7.178468257E-2,9.853643417E0,9.854101285E0
3.258725642E0,7.657032460E-2,-8.135596663E-2,9.834501266E0,9.835135839E0
3.260800954E0,6.699903309E-2,-9.092725813E-2,9.834501266E0,9.835149811E0
3.262876267E0,8.135596663E-2,-7.657032460E-2,9.829715729E0,9.830350610E0
3.264951631E0,8.614161611E-2,-9.092725813E-2,9.815358162E0,9.816157293E0
3.267026944E0,8.135596663E-2,-8.614161611E-2,9.829715729E0,9.830429822E0
3.269102256E0,8.135596663E-2,-8.614161611E-2,9.839286804E0,9.840000203E0
3.271177621E0,7.178468257E-2,-8.135596663E-2,9.834501266E0,9.835099745E0
3.273252933E0,7.657032460E-2,-8.135596663E-2,9.848857880E0,9.849491527E0
3.275328298E0,7.657032460E-2,-6.699903309E-2,9.834501266E0,9.835027557E0
3.277403611E0,6.221338734E-2,-8.135596663E-2,9.839286804E0,9.839819821E0
3.279478923E0,7.178468257E-2,-7.657032460E-2,9.810572624E0,9.811134046E0
3.281554288E0,8.614161611E-2,-1.004985496E-1,9.820143700E0,9.821035720E0
3.283629600E0,9.092725813E-2,-8.135596663E-2,9.805787086E0,9.806546127E0
3.285704913E0,8.135596663E-2,-7.657032460E-2,9.801001549E0,9.801638290E0
3.287780277E0,7.657032460E-2,-7.657032460E-2,9.824930191E0,9.825526922E0
3.289855590E0,6.699903309E-2,-9.092725813E-2,9.834501266E0,9.835149811E0
3.291930902E0,6.699903309E-2,-7.657032460E-2,9.829715729E0,9.830242275E0
3.294006267E0,6.699903309E-2,-7.657032460E-2,9.824930191E0,9.825456994E0
3.296081579E0,6.221338734E-2,-6.699903309E-2,9.820143700E0,9.820569314E0
3.298156892E0,7.657032460E-2,-7.178468257E-2,9.815358162E0,9.815919310E0
3.300232256E0,8.135596663E-2,-8.135596663E-2,9.815358162E0,9.816032469E0
3.302307569E0,7.657032460E-2,-8.135596663E-2,9.810572624E0,9.811208744E0
3.304382933E0,8.614161611E-2,-8.614161611E-2,9.796216011E0,9.796973456E0
3.306458194E0,8.135596663E-2,-7.657032460E-2,9.820143700E0,9.820779200E0
3.308533558E0,8.135596663E-2,-8.135596663E-2,9.820143700E0,9.820817678E0
3.310608923E0,9.092725813E-2,-8.135596663E-2,9.815358162E0,9.816116463E0
3.312684236E0,8.614161611E-2,-8.135596663E-2,9.801001549E0,9.801717734E0
3.314759548E0,8.614161611E-2,-7.657032460E-2,9.801001549E0,9.801679180E0
3.316834913E0,8.614161611E-2,-7.178468257E-2,9.777072906E0,9.777715891E0
3.318910225E0,7.657032460E-2,-7.657032460E-2,9.786644936E0,9.787244000E0
3.320985538E0,8.614161611E-2,-7.178468257E-2,9.757930756E0,9.758575001E0
3.323060902E0,8.135596663E-2,-8.135596663E-2,9.777072906E0,9.777749854E0
3.325136215E0,1.004985496E-1,-8.135596663E-2,9.781859398E0,9.782713940E0
3.327211527E0,8.614161611E-2,-9.571290761E-2,9.791430473E0,9.792277164E0
3.329286892E0,8.135596663E-2,-9.571290761E-2,9.786644936E0,9.787451091E0
3.331362204E0,8.135596663E-2,-8.614161611E-2,9.796216011E0,9.796932546E0
3.333437569E0,7.657032460E-2,-8.135596663E-2,9.810572624E0,9.811208744E0
3.335512881E0,7.178468257E-2,-7.657032460E-2,9.810572624E0,9.811134046E0
3.337588194E0,6.699903309E-2,-7.657032460E-2,9.810572624E0,9.811100198E0
3.339663558E0,6.699903309E-2,-7.178468257E-2,9.829715729E0,9.830206164E0
3.341738871E0,8.135596663E-2,-8.135596663E-2,9.834501266E0,9.835174261E0
3.343814236E0,9.092725813E-2,-9.571290761E-2,9.844072342E0,9.844957542E0
3.345889548E0,9.092725813E-2,-9.092725813E-2,9.844072342E0,9.844912179E0
3.347964861E0,8.135596663E-2,-9.092725813E-2,9.848857880E0,9.849613601E0
3.350040173E0,6.699903309E-2,-7.657032460E-2,9.858428955E0,9.858953968E0
3.352115538E0,5.742774159E-2,-7.657032460E-2,9.848857880E0,9.849322946E0
3.354190850E0,6.221338734E-2,-7.178468257E-2,9.853643417E0,9.854101285E0
3.356266215E0,7.178468257E-2,-6.699903309E-2,9.858428955E0,9.858917962E0
3.358341527E0,6.699903309E-2,-7.657032460E-2,9.858428955E0,9.858953968E0
3.360416840E0,7.657032460E-2,-7.178468257E-2,9.848857880E0,9.849417119E0
3.362492204E0,7.657032460E-2,-7.178468257E-2,9.844072342E0,9.844631853E0
3.364567517E0,7.657032460E-2,-8.135596663E-2,9.834501266E0,9.835135839E0
3.366642829E0,8.135596663E-2,-8.614161611E-2,9.824930191E0,9.825644632E0
3.368718194E0,8.135596663E-2,-8.614161611E-2,9.824930191E0,9.825644632E0
3.370793506E0,8.135596663E-2,-8.135596663E-2,9.815358162E0,9.816032469E0
3.372868871E0,7.657032460E-2,-7.657032460E-2,9.824930191E0,9.825526922E0
3.374944861E0,7.178468257E-2,-8.135596663E-2,9.805787086E0,9.806387317E0
3.377019496E0,7.178468257E-2,-8.135596663E-2,9.796216011E0,9.796816828E0
3.379094861E0,7.178468257E-2,-8.135596663E-2,9.801001549E0,9.801602073E0
